secs,nsecs,acc_x,acc_y,acc_z,gyr_x,gyr_y,gyr_z,q_w,q_x,q_y,q_z
1786198320,632312088,-0.067387959,0.062856518,9.732357747,-0.000075702,0.000005211,0.000186784,0.972165048,0.004166618,0.002425063,-0.234247506
1786198320,637282942,-0.067387959,0.062856518,9.732357747,-0.000073367,0.000010189,0.000192743,0.972165048,0.004166292,0.002425308,-0.234247312
1786198320,642306511,-0.067387959,0.062856518,9.732357747,-0.000072997,0.000014111,0.000196695,0.972165108,0.004165969,0.002425556,-0.234247133
1786198320,647311261,-0.067387959,0.062856518,9.732357747,-0.000075570,0.000017943,0.000198654,0.972165167,0.004165646,0.002425806,-0.234246954
1786198320,657309747,-0.054184197,0.065501469,9.725254549,-0.000021687,0.000063873,0.000029189,0.972165585,0.004162427,0.002423064,-0.234245181
1786198320,662309464,-0.054184197,0.065501469,9.725254549,-0.000018047,0.000071075,0.000013678,0.972165644,0.004162157,0.002422563,-0.234245166
1786198320,667308848,-0.056567705,0.063048343,9.727613316,-0.000016343,0.000079242,0.000001152,0.972165644,0.004161761,0.002422215,-0.234245166
1786198320,672287326,-0.056567705,0.063048343,9.727613316,-0.000014647,0.000087368,-0.000011312,0.972165644,0.004161373,0.002421880,-0.234245181
1786198320,677315830,-0.056567705,0.063048343,9.727613316,-0.000012960,0.000095454,-0.000023714,0.972165644,0.004160994,0.002421559,-0.234245211
1786198320,682316133,-0.056567705,0.063048343,9.727613316,-0.000009383,0.000104457,-0.000037959,0.972165644,0.004160626,0.002421250,-0.234245241
1786198320,687283043,-0.056567705,0.063048343,9.727613316,-0.000004867,0.000113408,-0.000053093,0.972165644,0.004160270,0.002420955,-0.234245285
1786198320,697308750,-0.067303129,0.061741901,9.723942434,-0.000001612,0.000104181,-0.000077069,0.972165287,0.004159790,0.002425392,-0.234246567
1786198320,702288868,-0.071034310,0.071270643,9.725240516,0.000008458,0.000081415,-0.000078882,0.972165287,0.004160100,0.002425762,-0.234246641
1786198320,707315807,-0.071034310,0.071270643,9.725240516,0.000019402,0.000060697,-0.000081615,0.972165227,0.004160417,0.002426110,-0.234246701
1786198320,717297352,-0.071034310,0.071270643,9.725240516,0.000025405,0.000040978,-0.000085340,0.972165227,0.004160737,0.002426439,-0.234246790
1786198320,722339355,-0.071034310,0.071270643,9.725240516,0.000029404,0.000023274,-0.000089035,0.972165227,0.004161058,0.002426752,-0.234246880
1786198320,727342076,-0.071034310,0.071270643,9.725240516,0.000028536,0.000007597,-0.000089820,0.972165167,0.004161377,0.002427051,-0.234246954
1786198320,732365517,-0.065022833,0.068941395,9.726442704,0.000025750,-0.000005021,-0.000085722,0.972165167,0.004161478,0.002427032,-0.234247044
1786198320,742363108,-0.059078910,0.070183901,9.730089027,-0.000034113,0.000006003,0.000081650,0.972165406,0.004161509,0.002419918,-0.234246224
1786198320,747389611,-0.059078910,0.070183901,9.730089027,-0.000035269,0.000014424,0.000066812,0.972165406,0.004161548,0.002419545,-0.234246150
1786198320,752372478,-0.059078910,0.070183901,9.730089027,-0.000037388,0.000021802,0.000051052,0.972165406,0.004161587,0.002419179,-0.234246090
1786198320,757346150,-0.059078910,0.070183901,9.730089027,-0.000039493,0.000028155,0.000034384,0.972165406,0.004161627,0.002418817,-0.234246045
1786198320,762365797,-0.059078910,0.070183901,9.730089027,-0.000039602,0.000033565,0.000019745,0.972165406,0.004161667,0.002418459,-0.234246016
1786198320,767351906,-0.061484510,0.070139946,9.731276012,-0.000041644,0.000040921,0.000008103,0.972165406,0.004161744,0.002418256,-0.234246001
1786198320,772366567,-0.061484510,0.070139946,9.731276012,-0.000042693,0.000049258,-0.000001515,0.972165406,0.004161822,0.002418062,-0.234246001
1786198320,782356603,-0.064997023,0.067754803,9.725227652,0.000124192,0.000155306,0.000073766,0.972165465,0.004161314,0.002417226,-0.234245718
1786198320,787369829,-0.064997023,0.067754803,9.725227652,0.000145104,0.000148064,0.000077394,0.972165525,0.004161497,0.002417350,-0.234245658
1786198320,792427647,-0.064997023,0.067754803,9.725227652,0.000160138,0.000136888,0.000079911,0.972165525,0.004161692,0.002417460,-0.234245583
1786198320,802376802,-0.064997023,0.067754803,9.725227652,0.000170304,0.000122815,0.000083287,0.972165525,0.004161894,0.002417554,-0.234245509
1786198320,807355396,-0.061397267,0.066592185,9.726432179,0.000174660,0.000104860,0.000086524,0.972165585,0.004161994,0.002417464,-0.234245434
1786198320,812341681,-0.061397267,0.066592185,9.726432179,0.000174202,0.000084043,0.000090618,0.972165585,0.004162087,0.002417352,-0.234245345
1786198320,817330850,-0.061397267,0.066592185,9.726432179,0.000169898,0.000060353,0.000093633,0.972165585,0.004162169,0.002417216,-0.234245256
1786198320,822328953,-0.062774460,0.078538046,9.728973379,0.000051548,-0.000094216,-0.000156755,0.972165525,0.004166964,0.002413716,-0.234245658
1786198320,827323734,-0.062774460,0.078538046,9.728973379,0.000049257,-0.000095874,-0.000164758,0.972165465,0.004167546,0.002413370,-0.234245822
1786198320,832324093,-0.062774460,0.078538046,9.728973379,0.000046086,-0.000101399,-0.000171824,0.972165406,0.004168119,0.002413021,-0.234245986
1786198320,842323140,-0.061564324,0.076132886,9.731349687,0.000042016,-0.000106836,-0.000174983,0.972165346,0.004168559,0.002412621,-0.234246150
1786198320,847342202,-0.061564324,0.076132886,9.731349687,0.000037063,-0.000112166,-0.000173281,0.972165287,0.004168992,0.002412218,-0.234246314
1786198320,852328854,-0.061564324,0.076132886,9.731349687,0.000034103,-0.000116420,-0.000168641,0.972165227,0.004169422,0.002411810,-0.234246477
1786198320,857326323,-0.061564324,0.076132886,9.731349687,0.000031207,-0.000118603,-0.000158169,0.972165227,0.004169851,0.002411400,-0.234246641
1786198320,867328345,-0.066349722,0.074858357,9.732510944,-0.000127133,0.000075853,-0.000057706,0.972165048,0.004172341,0.002407714,-0.234247684
1786198320,872343727,-0.066349722,0.074858357,9.732510944,-0.000133234,0.000078450,-0.000049677,0.972164989,0.004172668,0.002407827,-0.234247714
1786198320,877335801,-0.061480800,0.071362526,9.728891518,-0.000135359,0.000079176,-0.000039737,0.972164989,0.004172704,0.002407717,-0.234247759
1786198320,882325988,-0.061480800,0.071362526,9.728891518,-0.000131658,0.000078960,-0.000031744,0.972164989,0.004172745,0.002407605,-0.234247789
1786198320,887338374,-0.061480800,0.071362526,9.728891518,-0.000122178,0.000078780,-0.000025670,0.972164989,0.004172796,0.002407487,-0.234247819
1786198320,892339703,-0.061480800,0.071362526,9.728891518,-0.000105945,0.000077693,-0.000020541,0.972164989,0.004172865,0.002407363,-0.234247833
1786198320,897340247,-0.061480800,0.071362526,9.728891518,-0.000084026,0.000077598,-0.000018274,0.972164989,0.004172958,0.002407229,-0.234247848
1786198320,907311094,-0.071014631,0.071294635,9.722840819,-0.000027520,-0.000122539,-0.000049248,0.972164810,0.004176538,0.002408152,-0.234248415
1786198320,912350538,-0.071002388,0.068873467,9.725211280,-0.000037833,-0.000135644,-0.000049332,0.972164810,0.004176597,0.002408358,-0.234248474
1786198320,917346791,-0.071002388,0.068873467,9.725211280,-0.000047210,-0.000141841,-0.000047355,0.972164810,0.004176645,0.002408558,-0.234248534
1786198320,927321792,-0.071002388,0.068873467,9.725211280,-0.000054696,-0.000143148,-0.000046261,0.972164750,0.004176684,0.002408756,-0.234248579
1786198320,932348017,-0.071002388,0.068873467,9.725211280,-0.000064138,-0.000140571,-0.000044159,0.972164750,0.004176714,0.002408959,-0.234248638
1786198320,937321941,-0.071002388,0.068873467,9.725211280,-0.000072562,-0.000137996,-0.000042058,0.972164750,0.004176738,0.002409165,-0.234248698
1786198320,942316931,-0.062581593,0.067810754,9.722840819,-0.000079931,-0.000135367,-0.000037046,0.972164750,0.004176596,0.002408955,-0.234248728
1786198320,952345826,-0.060225193,0.067794729,9.727654247,0.000019951,-0.000079121,0.000020393,0.972164810,0.004173849,0.002404829,-0.234248593
1786198320,957319894,-0.060225193,0.067794729,9.727654247,0.000023730,-0.000071738,0.000028205,0.972164810,0.004173783,0.002404503,-0.234248549
1786198320,962351721,-0.060225193,0.067794729,9.727654247,0.000026448,-0.000058544,0.000038003,0.972164810,0.004173723,0.002404189,-0.234248504
1786198320,967319539,-0.060225193,0.067794729,9.727654247,0.000028116,-0.000041544,0.000047804,0.972164810,0.004173668,0.002403891,-0.234248444
1786198320,972344103,-0.060225193,0.067794729,9.727654247,0.000026876,-0.000024647,0.000058497,0.972164869,0.004173615,0.002403609,-0.234248385
1786198320,977345381,-0.061365336,0.064195009,9.726401773,0.000025631,-0.000008841,0.000067179,0.972164869,0.004173374,0.002403466,-0.234248310
1786198320,982381437,-0.061365336,0.064195009,9.726401773,0.000026337,0.000005921,0.000074852,0.972164869,0.004173138,0.002403338,-0.234248221
1786198320,992299455,-0.069772572,0.066492298,9.725187891,-0.000071667,-0.000035205,0.000123335,0.972165167,0.004171281,0.002406412,-0.234247133
1786198320,997327723,-0.069772572,0.066492298,9.725187891,-0.000078813,-0.000050653,0.000122387,0.972165167,0.004171185,0.002406672,-0.234247029
1786198321,2313719,-0.069772572,0.066492298,9.725187891,-0.000087840,-0.000069985,0.000118450,0.972165167,0.004171076,0.002406911,-0.234246925
1786198321,12317253,-0.069772572,0.066492298,9.725187891,-0.000098757,-0.000092210,0.000111554,0.972165227,0.004170952,0.002407126,-0.234246850
1786198321,17319876,-0.071031898,0.068837479,9.728811995,-0.000111649,-0.000112478,0.000100820,0.972165227,0.004170950,0.002407378,-0.234246761
1786198321,22322933,-0.071031898,0.068837479,9.728811995,-0.000122560,-0.000133648,0.000087233,0.972165227,0.004170930,0.002407608,-0.234246686
1786198321,27344829,-0.071031898,0.068837479,9.728811995,-0.000132466,-0.000151751,0.000075711,0.972165227,0.004170896,0.002407819,-0.234246626
1786198321,32317477,-0.055507367,0.072641020,9.728937126,-0.000015425,-0.000233604,0.000084075,0.972165465,0.004170180,0.002404672,-0.234245762
1786198321,37312924,-0.055507367,0.072641020,9.728937126,0.000000026,-0.000223532,0.000082987,0.972165525,0.004170266,0.002403906,-0.234245688
1786198321,42307023,-0.055507367,0.072641020,9.728937126,0.000017348,-0.000210501,0.000085854,0.972165525,0.004170371,0.002403152,-0.234245583
1786198321,52308709,-0.056648826,0.065385539,9.733642965,0.000035609,-0.000197452,0.000092599,0.972165525,0.004170096,0.002402526,-0.234245479
1786198321,57301942,-0.056648826,0.065385539,9.733642965,0.000051881,-0.000185425,0.000101216,0.972165585,0.004169842,0.002401912,-0.234245375
1786198321,62315712,-0.056648826,0.065385539,9.733642965,0.000063280,-0.000176410,0.000110662,0.972165585,0.004169604,0.002401308,-0.234245256
1786198321,67310267,-0.056648826,0.065385539,9.733642965,0.000071693,-0.000166505,0.000120047,0.972165644,0.004169378,0.002400715,-0.234245136
1786198321,77324710,-0.067444394,0.070096010,9.727646061,0.000085665,-0.000003136,0.000085068,0.972166061,0.004169039,0.002401722,-0.234243333
1786198321,82340605,-0.067444394,0.070096010,9.727646061,0.000080029,0.000004295,0.000069186,0.972166061,0.004169287,0.002401851,-0.234243259
1786198321,87344071,-0.068650802,0.073723778,9.722882919,0.000069524,0.000011577,0.000050421,0.972166061,0.004169723,0.002401997,-0.234243229
1786198321,92311174,-0.068650802,0.073723778,9.722882919,0.000055144,0.000019709,0.000029782,0.972166061,0.004170151,0.002402157,-0.234243214
1786198321,97342259,-0.068650802,0.073723778,9.722882919,0.000041795,0.000026805,0.000007301,0.972166061,0.004170575,0.002402329,-0.234243229
1786198321,102314953,-0.068650802,0.073723778,9.722882919,0.000033410,0.000033979,-0.000012106,0.972166061,0.004170991,0.002402510,-0.234243259
1786198321,107310374,-0.068650802,0.073723778,9.722882919,0.000030070,0.000037401,-0.000025603,0.972166061,0.004171400,0.002402693,-0.234243304
1786198321,117339327,-0.072184293,0.067658909,9.725190230,0.000062425,-0.000100357,-0.000005552,0.972165942,0.004174549,0.002408867,-0.234243959
1786198321,122364620,-0.067456636,0.072517178,9.725274430,0.000051706,-0.000114508,-0.000003928,0.972165942,0.004174859,0.002408842,-0.234243959
1786198321,127356018,-0.067456636,0.072517178,9.725274430,0.000041944,-0.000123704,-0.000001255,0.972165942,0.004175159,0.002408810,-0.234243959
1786198321,137340009,-0.067456636,0.072517178,9.725274430,0.000030217,-0.000127017,0.000003419,0.972165942,0.004175446,0.002408778,-0.234243959
1786198321,142341410,-0.067456636,0.072517178,9.725274430,0.000018486,-0.000127420,0.000007147,0.972165883,0.004175723,0.002408748,-0.234243944
1786198321,147344554,-0.067456636,0.072517178,9.725274430,0.000010653,-0.000126840,0.000008971,0.972165883,0.004175993,0.002408722,-0.234243929
1786198321,152331932,-0.060282916,0.071378496,9.728897365,0.000004773,-0.000126276,0.000008865,0.972165883,0.004176107,0.002408289,-0.234243900
1786198321,162335482,-0.060290344,0.068933337,9.733668693,-0.000039105,-0.000043101,-0.000017986,0.972165942,0.004178415,0.002399552,-0.234243736
1786198321,167343675,-0.060290344,0.068933337,9.733668693,-0.000046216,-0.000023791,-0.000030275,0.972165942,0.004178350,0.002399238,-0.234243751
1786198321,172335470,-0.060290344,0.068933337,9.733668693,-0.000051380,-0.000003601,-0.000043437,0.972165942,0.004178285,0.002398944,-0.234243780
1786198321,177303726,-0.060290344,0.068933337,9.733668693,-0.000054617,0.000016456,-0.000059424,0.972165942,0.004178221,0.002398679,-0.234243825
1786198321,182334172,-0.060290344,0.068933337,9.733668693,-0.000056865,0.000035436,-0.000076308,0.972165883,0.004178160,0.002398441,-0.234243870
1786198321,187319481,-0.063915910,0.071282565,9.733679218,-0.000059085,0.000053350,-0.000093123,0.972165883,0.004178309,0.002398424,-0.234243959
1786198321,192321828,-0.063915910,0.071282565,9.733679218,-0.000059200,0.000066436,-0.000105058,0.972165883,0.004178456,0.002398422,-0.234244063
1786198321,202319547,-0.073357665,0.062800604,9.729926475,-0.000094117,-0.000113605,-0.000073687,0.972165585,0.004178370,0.002400973,-0.234245330
1786198321,207318839,-0.073357665,0.062800604,9.729926475,-0.000079852,-0.000130473,-0.000080251,0.972165525,0.004178085,0.002401432,-0.234245405
1786198321,212321425,-0.073357665,0.062800604,9.729926475,-0.000066613,-0.000148239,-0.000086807,0.972165525,0.004177810,0.002401867,-0.234245509
1786198321,222313031,-0.073357665,0.062800604,9.729926475,-0.000050516,-0.000164874,-0.000091344,0.972165525,0.004177548,0.002402280,-0.234245613
1786198321,227346610,-0.070990136,0.066452318,9.727582911,-0.000033398,-0.000183229,-0.000089085,0.972165465,0.004177470,0.002402474,-0.234245703
1786198321,232309435,-0.070990136,0.066452318,9.727582911,-0.000014314,-0.000201322,-0.000079052,0.972165465,0.004177407,0.002402649,-0.234245792
1786198321,237302158,-0.070990136,0.066452318,9.727582911,0.000006711,-0.000218185,-0.000061267,0.972165465,0.004177360,0.002402804,-0.234245867
1786198321,242302960,-0.065116197,0.073699768,9.730101891,0.000094756,-0.000116736,0.000124280,0.972165704,0.004182032,0.002398951,-0.234244660
1786198321,247329770,-0.065116197,0.073699768,9.730101891,0.000082284,-0.000100871,0.000117961,0.972165763,0.004182405,0.002398796,-0.234244555
1786198321,252306287,-0.065116197,0.073699768,9.730101891,0.000067992,-0.000087014,0.000113565,0.972165763,0.004182773,0.002398658,-0.234244451
1786198321,262299995,-0.063898642,0.073739712,9.727708041,0.000055744,-0.000074155,0.000110164,0.972165763,0.004183109,0.002398469,-0.234244347
1786198321,267302203,-0.063898642,0.073739712,9.727708041,0.000044550,-0.000064297,0.000104804,0.972165823,0.004183442,0.002398291,-0.234244257
1786198321,272301080,-0.063898642,0.073739712,9.727708041,0.000036311,-0.000054471,0.000098530,0.972165823,0.004183773,0.002398123,-0.234244168
1786198321,277293695,-0.063898642,0.073739712,9.727708041,0.000031029,-0.000045649,0.000091332,0.972165823,0.004184104,0.002397964,-0.234244078
1786198321,287300084,-0.064949131,0.064159058,9.725183213,0.000032199,0.000090450,0.000140118,0.972166121,0.004184024,0.002398252,-0.234243095
1786198321,292301124,-0.064949131,0.064159058,9.725183213,0.000023547,0.000085258,0.000150896,0.972166121,0.004183865,0.002398406,-0.234242931
1786198321,297330460,-0.064928154,0.067838775,9.716827542,0.000016875,0.000077130,0.000157710,0.972166121,0.004183893,0.002398504,-0.234242767
1786198321,302313262,-0.064928154,0.067838775,9.716827542,0.000009262,0.000065058,0.000159565,0.972166181,0.004183910,0.002398593,-0.234242618
1786198321,307309061,-0.064928154,0.067838775,9.716827542,0.000002622,0.000051025,0.000156536,0.972166240,0.004183918,0.002398669,-0.234242469
1786198321,312332466,-0.064928154,0.067838775,9.716827542,-0.000005025,0.000036959,0.000148659,0.972166240,0.004183915,0.002398734,-0.234242305
1786198321,317352225,-0.064928154,0.067838775,9.716827542,-0.000012642,0.000020968,0.000137879,0.972166300,0.004183902,0.002398786,-0.234242171
1786198321,327341113,-0.061469663,0.075030265,9.721734526,-0.000016566,-0.000050847,0.000110009,0.972166657,0.004186639,0.002396232,-0.234240830
1786198321,332345255,-0.056579956,0.065469510,9.725241686,0.000005484,-0.000027981,0.000111021,0.972166657,0.004186379,0.002395808,-0.234240711
1786198321,337343992,-0.056579956,0.065469510,9.725241686,0.000028343,-0.000006279,0.000107170,0.972166717,0.004186147,0.002395399,-0.234240606
1786198321,347311307,-0.056579956,0.065469510,9.725241686,0.000054996,0.000011423,0.000100404,0.972166717,0.004185950,0.002395008,-0.234240487
1786198321,352346658,-0.056579956,0.065469510,9.725241686,0.000081560,0.000023141,0.000089697,0.972166717,0.004185785,0.002394628,-0.234240383
1786198321,357316938,-0.056579956,0.065469510,9.725241686,0.000109014,0.000030910,0.000078020,0.972166777,0.004185652,0.002394256,-0.234240308
1786198321,362326791,-0.053103074,0.069029231,9.733706115,0.000136396,0.000034758,0.000066339,0.972166777,0.004185667,0.002393539,-0.234240219
1786198321,372289226,-0.062681087,0.073779692,9.725314191,0.000305160,0.000079337,0.000060364,0.972166955,0.004188627,0.002390745,-0.234239399
1786198321,377314303,-0.062681087,0.073779692,9.725314191,0.000306573,0.000080001,0.000063020,0.972167015,0.004189181,0.002390614,-0.234239355
1786198321,382283479,-0.062681087,0.073779692,9.725314191,0.000306080,0.000079704,0.000067568,0.972166955,0.004189732,0.002390482,-0.234239280
1786198321,387310175,-0.062681087,0.073779692,9.725314191,0.000301794,0.000077493,0.000075904,0.972167015,0.004190280,0.002390350,-0.234239221
1786198321,392310514,-0.062681087,0.073779692,9.725314191,0.000294723,0.000071430,0.000087017,0.972167015,0.004190818,0.002390214,-0.234239131
1786198321,397306084,-0.068542775,0.064111111,9.725164502,0.000284822,0.000063439,0.000098984,0.972167015,0.004190960,0.002390455,-0.234239057
1786198321,402291028,-0.068542775,0.064111111,9.725164502,0.000273036,0.000052498,0.000107912,0.972167075,0.004191086,0.002390689,-0.234238982
1786198321,412336527,-0.063847040,0.071366537,9.725277938,-0.000062378,-0.000161504,0.000016538,0.972167253,0.004190858,0.002390573,-0.234238058
1786198321,417308343,-0.063847040,0.071366537,9.725277938,-0.000066152,-0.000158032,0.000005784,0.972167253,0.004190911,0.002390372,-0.234238058
1786198321,422300102,-0.063847040,0.071366537,9.725277938,-0.000065082,-0.000153566,-0.000005821,0.972167253,0.004190965,0.002390176,-0.234238058
1786198321,432298404,-0.063847040,0.071366537,9.725277938,-0.000060149,-0.000148105,-0.000017311,0.972167253,0.004191025,0.002389984,-0.234238073
1786198321,437309281,-0.066260058,0.068877423,9.731236251,-0.000050370,-0.000143584,-0.000028708,0.972167253,0.004190999,0.002389966,-0.234238103
1786198321,442349888,-0.066260058,0.068877423,9.731236251,-0.000036693,-0.000141932,-0.000039084,0.972167253,0.004190987,0.002389947,-0.234238148
1786198321,447352431,-0.066260058,0.068877423,9.731236251,-0.000020082,-0.000142122,-0.000045526,0.972167253,0.004190992,0.002389924,-0.234238192
1786198321,452414226,-0.056579956,0.065469510,9.725241686,0.000024956,-0.000020796,-0.000020195,0.972167313,0.004188839,0.002384788,-0.234238133
1786198321,457351639,-0.056579956,0.065469510,9.725241686,0.000020708,-0.000009145,-0.000022860,0.972167313,0.004188580,0.002384368,-0.234238133
1786198321,462357668,-0.056579956,0.065469510,9.725241686,0.000018467,0.000001536,-0.000023566,0.972167313,0.004188321,0.002383958,-0.234238148
1786198321,472328171,-0.056680748,0.067782696,9.733673370,0.000018238,0.000011272,-0.000021351,0.972167313,0.004188166,0.002383433,-0.234238133
1786198321,477307024,-0.056680748,0.067782696,9.733673370,0.000019995,0.000020048,-0.000017202,0.972167313,0.004188017,0.002382919,-0.234238118
1786198321,482294949,-0.056680748,0.067782696,9.733673370,0.000021772,0.000028816,-0.000011133,0.972167313,0.004187871,0.002382417,-0.234238103
1786198321,487293301,-0.056680748,0.067782696,9.733673370,0.000021581,0.000038488,-0.000005098,0.972167313,0.004187728,0.002381926,-0.234238073
1786198321,497295379,-0.065112488,0.074922348,9.727717397,-0.000007371,0.000021370,0.000041695,0.972167432,0.004188608,0.002378906,-0.234237656
1786198321,502327597,-0.065112488,0.074922348,9.727717397,-0.000015592,-0.000007981,0.000039957,0.972167432,0.004189011,0.002378867,-0.234237626
1786198321,507292702,-0.073481680,0.073611877,9.727658924,-0.000028655,-0.000037279,0.000036236,0.972167432,0.004189425,0.002379328,-0.234237626
1786198321,512333656,-0.073481680,0.073611877,9.727658924,-0.000041669,-0.000065460,0.000032548,0.972167432,0.004189808,0.002379751,-0.234237626
1786198321,517306750,-0.073481680,0.073611877,9.727658924,-0.000057564,-0.000091594,0.000028879,0.972167432,0.004190159,0.002380141,-0.234237626
1786198321,522329189,-0.073481680,0.073611877,9.727658924,-0.000075340,-0.000115661,0.000026211,0.972167432,0.004190476,0.002380499,-0.234237626
1786198321,527296770,-0.073481680,0.073611877,9.727658924,-0.000093034,-0.000137630,0.000025528,0.972167432,0.004190760,0.002380830,-0.234237626
1786198321,537295000,-0.060238742,0.066560171,9.731238590,-0.000187792,-0.000091266,-0.000020339,0.972167552,0.004189081,0.002378969,-0.234237105
1786198321,542307752,-0.062650463,0.067726782,9.731240929,-0.000181448,-0.000073432,-0.000028633,0.972167552,0.004188828,0.002378866,-0.234237134
1786198321,547300576,-0.062650463,0.067726782,9.731240929,-0.000171244,-0.000053644,-0.000033901,0.972167552,0.004188588,0.002378778,-0.234237164
1786198321,557327832,-0.062650463,0.067726782,9.731240929,-0.000157145,-0.000035813,-0.000037191,0.972167552,0.004188365,0.002378703,-0.234237194
1786198321,562330467,-0.062650463,0.067726782,9.731240929,-0.000141162,-0.000018030,-0.000039475,0.972167552,0.004188161,0.002378640,-0.234237239
1786198321,567296088,-0.062650463,0.067726782,9.731240929,-0.000122312,-0.000002242,-0.000041747,0.972167552,0.004187978,0.002378586,-0.234237283
1786198321,572328655,-0.065062183,0.068893411,9.731243268,-0.000102580,0.000011501,-0.000045970,0.972167552,0.004187927,0.002378674,-0.234237328
1786198321,582324341,-0.069822886,0.072521207,9.721660851,-0.000005993,0.000142832,0.000011260,0.972167313,0.004191270,0.002383547,-0.234237939
1786198321,587301513,-0.069822886,0.072521207,9.721660851,0.000002927,0.000137461,0.000016071,0.972167313,0.004191586,0.002383919,-0.234237939
1786198321,592328379,-0.069822886,0.072521207,9.721660851,0.000013756,0.000128184,0.000016933,0.972167313,0.004191911,0.002384278,-0.234237939
1786198321,597294314,-0.069822886,0.072521207,9.721660851,0.000027471,0.000114062,0.000013861,0.972167313,0.004192245,0.002384620,-0.234237939
1786198321,602293150,-0.069822886,0.072521207,9.721660851,0.000040144,0.000096026,0.000005878,0.972167313,0.004192590,0.002384944,-0.234237954
1786198321,607295557,-0.062684806,0.072557121,9.727699855,0.000051839,0.000072189,-0.000005081,0.972167313,0.004192878,0.002384853,-0.234237954
1786198321,612340730,-0.062684806,0.072557121,9.727699855,0.000060568,0.000046459,-0.000017987,0.972167313,0.004193170,0.002384735,-0.234237969
1786198321,622326461,-0.061339535,0.063008417,9.725187891,0.000065329,-0.000131089,0.000021027,0.972167253,0.004195566,0.002381845,-0.234238103
1786198321,627351052,-0.061339535,0.063008417,9.725187891,0.000054142,-0.000125836,0.000014093,0.972167313,0.004195259,0.002381630,-0.234238088
1786198321,632338638,-0.061339535,0.063008417,9.725187891,0.000042961,-0.000117697,0.000007239,0.972167313,0.004194938,0.002381424,-0.234238073
1786198321,642333183,-0.061339535,0.063008417,9.725187891,0.000033776,-0.000108587,0.000001428,0.972167313,0.004194606,0.002381229,-0.234238058
1786198321,647333919,-0.058947494,0.061817796,9.727586419,0.000026606,-0.000099463,-0.000002393,0.972167313,0.004194142,0.002380914,-0.234238043
1786198321,652320082,-0.058947494,0.061817796,9.727586419,0.000020473,-0.000091325,-0.000005230,0.972167313,0.004193672,0.002380608,-0.234238029
1786198321,657298024,-0.058947494,0.061817796,9.727586419,0.000018313,-0.000084097,-0.000005115,0.972167313,0.004193199,0.002380308,-0.234238014
1786198321,662345425,-0.060201795,0.069041300,9.722867716,-0.000111204,0.000066092,-0.000039258,0.972167253,0.004187923,0.002376885,-0.234238505
1786198321,667306661,-0.060201795,0.069041300,9.722867716,-0.000109649,0.000075735,-0.000025308,0.972167194,0.004187823,0.002376782,-0.234238505
1786198321,672344640,-0.060201795,0.069041300,9.722867716,-0.000107125,0.000083363,-0.000013389,0.972167194,0.004187727,0.002376686,-0.234238505
1786198321,682294960,-0.067366982,0.066536253,9.724000906,-0.000102718,0.000092900,-0.000002449,0.972167194,0.004187596,0.002376998,-0.234238505
1786198321,687327263,-0.067366982,0.066536253,9.724000906,-0.000099346,0.000102323,0.000005514,0.972167194,0.004187472,0.002377318,-0.234238505
1786198321,692293739,-0.067366982,0.066536253,9.724000906,-0.000097958,0.000110650,0.000010490,0.972167194,0.004187351,0.002377643,-0.234238490
1786198321,697317836,-0.067366982,0.066536253,9.724000906,-0.000097525,0.000115976,0.000013442,0.972167194,0.004187231,0.002377972,-0.234238476
1786198321,707328248,-0.061349375,0.062996421,9.726387740,-0.000054812,0.000083758,0.000021507,0.972167313,0.004183421,0.002381261,-0.234238118
1786198321,712295047,-0.061349375,0.062996421,9.726387740,-0.000049317,0.000061054,0.000020122,0.972167313,0.004183048,0.002381248,-0.234238088
1786198321,717298901,-0.061407107,0.066580189,9.727633197,-0.000041861,0.000036563,0.000019703,0.972167313,0.004182876,0.002381155,-0.234238058
1786198321,722299444,-0.061407107,0.066580189,9.727633197,-0.000034428,0.000012213,0.000020257,0.972167313,0.004182701,0.002381035,-0.234238029
1786198321,727325225,-0.061407107,0.066580189,9.727633197,-0.000026078,-0.000011032,0.000020833,0.972167373,0.004182530,0.002380889,-0.234238014
1786198321,732304859,-0.061407107,0.066580189,9.727633197,-0.000015850,-0.000031190,0.000023416,0.972167373,0.004182364,0.002380722,-0.234237969
1786198321,737322588,-0.061407107,0.066580189,9.727633197,-0.000003755,-0.000047286,0.000028980,0.972167373,0.004182208,0.002380539,-0.234237924
1786198321,747318369,-0.060292756,0.071366500,9.730097213,-0.000082396,0.000075502,0.000104093,0.972167671,0.004184065,0.002377834,-0.234236643
1786198321,752298358,-0.056673320,0.070227856,9.728902043,-0.000087970,0.000077820,0.000095794,0.972167730,0.004184005,0.002377494,-0.234236553
1786198321,757329616,-0.056673320,0.070227856,9.728902043,-0.000088631,0.000079234,0.000088541,0.972167730,0.004183946,0.002377155,-0.234236449
1786198321,767335757,-0.056673320,0.070227856,9.728902043,-0.000084450,0.000081668,0.000081391,0.972167730,0.004183891,0.002376816,-0.234236360
1786198321,772305427,-0.056673320,0.070227856,9.728902043,-0.000074496,0.000086103,0.000074369,0.972167790,0.004183846,0.002376475,-0.234236285
1786198321,777312221,-0.056673320,0.070227856,9.728902043,-0.000058794,0.000095511,0.000071403,0.972167790,0.004183819,0.002376137,-0.234236196
1786198321,782339927,-0.060318556,0.072553092,9.731312265,-0.000041206,0.000106910,0.000072386,0.972167790,0.004184004,0.002375966,-0.234236121
1786198321,792290268,-0.066192487,0.065305670,9.728793284,0.000014792,0.000145379,0.000002026,0.972167969,0.004186327,0.002377641,-0.234235346
1786198321,797325270,-0.066192487,0.065305670,9.728793284,0.000017515,0.000141556,-0.000009649,0.972167969,0.004186228,0.002377943,-0.234235361
1786198321,802298672,-0.066192487,0.065305670,9.728793284,0.000017344,0.000135776,-0.000021327,0.972167969,0.004186128,0.002378239,-0.234235376
1786198321,807298676,-0.066192487,0.065305670,9.728793284,0.000018164,0.000128078,-0.000033938,0.972167969,0.004186028,0.002378526,-0.234235406
1786198321,812298507,-0.066192487,0.065305670,9.728793284,0.000019998,0.000118506,-0.000045536,0.972167969,0.004185928,0.002378803,-0.234235451
1786198321,817325706,-0.072229773,0.068821509,9.728806148,0.000022868,0.000107107,-0.000054185,0.972167969,0.004186118,0.002379370,-0.234235525
1786198321,822288990,-0.072229773,0.068821509,9.728806148,0.000026800,0.000092938,-0.000058944,0.972167909,0.004186308,0.002379923,-0.234235585
1786198321,832294228,-0.059031018,0.066588156,9.730044588,0.000085363,-0.000049555,0.000048964,0.972167969,0.004188817,0.002375895,-0.234235510
1786198321,837322666,-0.059031018,0.066588156,9.730044588,0.000065774,-0.000063094,0.000050239,0.972167969,0.004188684,0.002375544,-0.234235451
1786198321,842324668,-0.059031018,0.066588156,9.730044588,0.000049186,-0.000077537,0.000049581,0.972167969,0.004188531,0.002375183,-0.234235391
1786198321,852319914,-0.059031018,0.066588156,9.730044588,0.000035579,-0.000091891,0.000047986,0.972167969,0.004188362,0.002374811,-0.234235331
1786198321,857287543,-0.057858943,0.067790700,9.731265487,0.000022932,-0.000102297,0.000045501,0.972168028,0.004188229,0.002374333,-0.234235287
1786198321,862323678,-0.057858943,0.067790700,9.731265487,0.000012227,-0.000109734,0.000042125,0.972168028,0.004188084,0.002373850,-0.234235227
1786198321,867320930,-0.057858943,0.067790700,9.731265487,0.000004380,-0.000113271,0.000035946,0.972168028,0.004187929,0.002373363,-0.234235182
1786198321,872319687,-0.061385016,0.064171017,9.728802640,-0.000113812,0.000083037,-0.000147120,0.972167850,0.004186764,0.002368258,-0.234236002
1786198321,877292217,-0.061385016,0.064171017,9.728802640,-0.000115518,0.000093075,-0.000156911,0.972167850,0.004186422,0.002368300,-0.234236151
1786198321,882297947,-0.061385016,0.064171017,9.728802640,-0.000117158,0.000102147,-0.000163757,0.972167790,0.004186083,0.002368351,-0.234236300
1786198321,892287497,-0.060314847,0.073775672,9.728926601,-0.000119579,0.000105448,-0.000164848,0.972167730,0.004186223,0.002368231,-0.234236464
1786198321,897292132,-0.060314847,0.073775672,9.728926601,-0.000123751,0.000103983,-0.000159237,0.972167730,0.004186360,0.002368111,-0.234236628
1786198321,902285855,-0.060314847,0.073775672,9.728926601,-0.000130710,0.000099650,-0.000149849,0.972167671,0.004186489,0.002367988,-0.234236777
1786198321,907292551,-0.060314847,0.073775672,9.728926601,-0.000140428,0.000092484,-0.000135732,0.972167671,0.004186609,0.002367858,-0.234236926
1786198321,917317131,-0.067370701,0.065313673,9.726385401,-0.000051470,-0.000152035,0.000061226,0.972167552,0.004184969,0.002370464,-0.234237194
1786198321,922335755,-0.067370701,0.065313673,9.726385401,-0.000039191,-0.000164542,0.000070529,0.972167611,0.004184777,0.002370533,-0.234237134
1786198321,927343782,-0.062643044,0.070171942,9.726469601,-0.000028987,-0.000171149,0.000081801,0.972167611,0.004184788,0.002370284,-0.234237060
1786198321,932349795,-0.062643044,0.070171942,9.726469601,-0.000019855,-0.000174823,0.000093053,0.972167611,0.004184808,0.002370031,-0.234236971
1786198321,937326599,-0.062643044,0.070171942,9.726469601,-0.000011753,-0.000178509,0.000103268,0.972167671,0.004184834,0.002369772,-0.234236881
1786198321,942380576,-0.062643044,0.070171942,9.726469601,-0.000004721,-0.000181272,0.000110526,0.972167671,0.004184866,0.002369509,-0.234236777
1786198321,947300228,-0.062643044,0.070171942,9.726469601,0.000001264,-0.000184087,0.000114825,0.972167730,0.004184904,0.002369243,-0.234236687
1786198321,957320680,-0.057829433,0.067826687,9.727665941,0.000146946,0.000054199,-0.000059768,0.972167790,0.004182898,0.002364035,-0.234236211
1786198321,962290828,-0.057797511,0.065429530,9.727636705,0.000140083,0.000078270,-0.000051377,0.972167790,0.004182817,0.002363794,-0.234236240
1786198321,967281419,-0.057797511,0.065429530,9.727636705,0.000130314,0.000102150,-0.000044999,0.972167790,0.004182735,0.002363581,-0.234236270
1786198321,977277266,-0.057797511,0.065429530,9.727636705,0.000120527,0.000124830,-0.000044493,0.972167790,0.004182650,0.002363394,-0.234236300
1786198321,982251853,-0.057797511,0.065429530,9.727636705,0.000109733,0.000148265,-0.000048836,0.972167790,0.004182562,0.002363236,-0.234236330
1786198321,987267892,-0.057797511,0.065429530,9.727636705,0.000098967,0.000170557,-0.000056086,0.972167790,0.004182472,0.002363105,-0.234236374
1786198321,992293433,-0.065032673,0.068929399,9.727643722,0.000089232,0.000190772,-0.000065261,0.972167790,0.004182650,0.002363328,-0.234236434
1786198322,2286937,-0.067351021,0.065337665,9.723985704,0.000128409,0.000122346,-0.000098594,0.972167373,0.004184032,0.002369846,-0.234238029
1786198322,7263659,-0.067351021,0.065337665,9.723985704,0.000125938,0.000115905,-0.000097244,0.972167373,0.004184078,0.002370132,-0.234238118
1786198322,12283342,-0.067351021,0.065337665,9.723985704,0.000118685,0.000107533,-0.000094042,0.972167313,0.004184114,0.002370414,-0.234238192
1786198322,17266994,-0.067351021,0.065337665,9.723985704,0.000106654,0.000099199,-0.000087996,0.972167313,0.004184136,0.002370693,-0.234238282
1786198322,22275289,-0.067351021,0.065337665,9.723985704,0.000091795,0.000091897,-0.000079082,0.972167313,0.004184139,0.002370971,-0.234238356
1786198322,27269905,-0.063854459,0.068921378,9.730049266,0.000077041,0.000083680,-0.000069258,0.972167253,0.004184265,0.002371022,-0.234238416
1786198322,32290488,-0.063854459,0.068921378,9.730049266,0.000067232,0.000074590,-0.000059447,0.972167253,0.004184380,0.002371066,-0.234238476
1786198322,42305158,-0.066411154,0.077219554,9.736140895,0.000000512,-0.000021526,0.000028656,0.972167253,0.004188523,0.002372593,-0.234238610
1786198322,47277688,-0.066411154,0.077219554,9.736140895,-0.000009352,-0.000006848,0.000035439,0.972167253,0.004189225,0.002372610,-0.234238595
1786198322,52322930,-0.066411154,0.077219554,9.736140895,-0.000020107,0.000006793,0.000043133,0.972167194,0.004189908,0.002372642,-0.234238550
1786198322,62308102,-0.066411154,0.077219554,9.736140895,-0.000031729,0.000017442,0.000050731,0.972167194,0.004190565,0.002372687,-0.234238520
1786198322,67283986,-0.062694637,0.072545126,9.728899704,-0.000043255,0.000024119,0.000056287,0.972167253,0.004190757,0.002372582,-0.234238476
1786198322,72290799,-0.062694637,0.072545126,9.728899704,-0.000056594,0.000024878,0.000059761,0.972167253,0.004190935,0.002372483,-0.234238416
1786198322,77291155,-0.062694637,0.072545126,9.728899704,-0.000071677,0.000017845,0.000063073,0.972167253,0.004191094,0.002372382,-0.234238356
1786198322,82295639,-0.061426777,0.066556197,9.730032894,0.000013479,0.000019656,0.000065158,0.972167552,0.004189852,0.002371763,-0.234237313
1786198322,87306262,-0.061426777,0.066556197,9.730032894,0.000019238,0.000024591,0.000070795,0.972167552,0.004189719,0.002371651,-0.234237224
1786198322,92290033,-0.061426777,0.066556197,9.730032894,0.000022050,0.000031443,0.000078344,0.972167611,0.004189592,0.002371548,-0.234237149
1786198322,102290738,-0.066153137,0.065353653,9.723992720,0.000022875,0.000039190,0.000084881,0.972167611,0.004189489,0.002371739,-0.234237060
1786198322,107302214,-0.066153137,0.065353653,9.723992720,0.000020786,0.000045875,0.000090369,0.972167611,0.004189386,0.002371936,-0.234236971
1786198322,112283143,-0.066153137,0.065353653,9.723992720,0.000017701,0.000050482,0.000090935,0.972167671,0.004189280,0.002372138,-0.234236896
1786198322,117317111,-0.066153137,0.065353653,9.723992720,0.000013670,0.000051099,0.000087543,0.972167671,0.004189171,0.002372341,-0.234236807
1786198322,127317610,-0.060158927,0.060567232,9.731164915,-0.000058126,-0.000074541,0.000000135,0.972167790,0.004183334,0.002371816,-0.234236360
1786198322,132291721,-0.060158927,0.060567232,9.731164915,-0.000076136,-0.000083126,-0.000000200,0.972167790,0.004182701,0.002371634,-0.234236345
1786198322,137297017,-0.056657359,0.069029268,9.728886840,-0.000091091,-0.000095534,-0.000001535,0.972167790,0.004182531,0.002371131,-0.234236330
1786198322,147275460,-0.056657359,0.069029268,9.728886840,-0.000103001,-0.000108762,0.000000063,0.972167790,0.004182346,0.002370626,-0.234236315
1786198322,152285889,-0.056657359,0.069029268,9.728886840,-0.000109940,-0.000121791,0.000005587,0.972167790,0.004182152,0.002370116,-0.234236300
1786198322,157308347,-0.056657359,0.069029268,9.728886840,-0.000112924,-0.000132677,0.000016008,0.972167850,0.004181955,0.002369604,-0.234236285
1786198322,162281938,-0.056657359,0.069029268,9.728886840,-0.000113005,-0.000139536,0.000029382,0.972167850,0.004181756,0.002369090,-0.234236240
1786198322,167290425,-0.061496761,0.072561114,9.728906720,-0.000005480,0.000011956,0.000071211,0.972168028,0.004183951,0.002360830,-0.234235257
1786198322,172288973,-0.067470185,0.071282602,9.728859943,-0.000002599,0.000023761,0.000080779,0.972168028,0.004184186,0.002361040,-0.234235197
1786198322,177284245,-0.067470185,0.071282602,9.728859943,-0.000002673,0.000035436,0.000088327,0.972168088,0.004184421,0.002361258,-0.234235138
1786198322,187278249,-0.067470185,0.071282602,9.728859943,-0.000006692,0.000048910,0.000093886,0.972168088,0.004184652,0.002361487,-0.234235063
1786198322,192283387,-0.067470185,0.071282602,9.728859943,-0.000013690,0.000063162,0.000094549,0.972168088,0.004184875,0.002361729,-0.234234989
1786198322,197289703,-0.067470185,0.071282602,9.728859943,-0.000021678,0.000077258,0.000091316,0.972168088,0.004185091,0.002361984,-0.234234914
1786198322,202282909,-0.067424714,0.070120002,9.725245194,-0.000032639,0.000092111,0.000082261,0.972168148,0.004185220,0.002362254,-0.234234869
1786198322,212304742,-0.066224418,0.067702827,9.728822520,-0.000031745,-0.000073208,-0.000020727,0.972168148,0.004186556,0.002366060,-0.234234869
1786198322,217309702,-0.066224418,0.067702827,9.728822520,-0.000037209,-0.000091500,-0.000028746,0.972168148,0.004186491,0.002366131,-0.234234899
1786198322,222303322,-0.066224418,0.067702827,9.728822520,-0.000046632,-0.000102935,-0.000035686,0.972168148,0.004186413,0.002366190,-0.234234929
1786198322,227286007,-0.066224418,0.067702827,9.728822520,-0.000058077,-0.000108548,-0.000044460,0.972168088,0.004186323,0.002366244,-0.234234959
1786198322,232316982,-0.066224418,0.067702827,9.728822520,-0.000072490,-0.000108363,-0.000054097,0.972168088,0.004186220,0.002366300,-0.234235018
1786198322,237292027,-0.065026534,0.067718815,9.728828368,-0.000087901,-0.000102366,-0.000063603,0.972168088,0.004186088,0.002366296,-0.234235078
1786198322,242299942,-0.065026534,0.067718815,9.728828368,-0.000100420,-0.000090540,-0.000072937,0.972168088,0.004185947,0.002366306,-0.234235153
1786198322,252304586,-0.063902351,0.072517141,9.730093705,-0.000095040,0.000062515,-0.000166364,0.972167611,0.004185713,0.002366168,-0.234237179
1786198322,257313325,-0.063902351,0.072517141,9.730093705,-0.000101571,0.000077725,-0.000161472,0.972167552,0.004185855,0.002366217,-0.234237328
1786198322,262293642,-0.063902351,0.072517141,9.730093705,-0.000109056,0.000093817,-0.000156599,0.972167492,0.004185991,0.002366285,-0.234237477
1786198322,272334915,-0.063902351,0.072517141,9.730093705,-0.000114593,0.000110804,-0.000152685,0.972167432,0.004186123,0.002366370,-0.234237626
1786198322,277340071,-0.063840919,0.070155953,9.726463754,-0.000119139,0.000125723,-0.000151724,0.972167432,0.004186123,0.002366500,-0.234237790
1786198322,282302929,-0.063840919,0.070155953,9.726463754,-0.000121773,0.000139528,-0.000155616,0.972167373,0.004186122,0.002366645,-0.234237939
1786198322,287319811,-0.063840919,0.070155953,9.726463754,-0.000121563,0.000153190,-0.000165282,0.972167313,0.004186124,0.002366803,-0.234238103
1786198322,292317777,-0.068487464,0.062960507,9.720349905,0.000064471,0.000016685,-0.000148666,0.972166538,0.004185284,0.002372346,-0.234241560
1786198322,297289146,-0.068487464,0.062960507,9.720349905,0.000084949,0.000009446,-0.000128422,0.972166479,0.004185166,0.002372616,-0.234241679
1786198322,302270494,-0.068487464,0.062960507,9.720349905,0.000105274,0.000005154,-0.000108231,0.972166479,0.004185067,0.002372878,-0.234241784
1786198322,312275903,-0.067354730,0.064115085,9.726371368,0.000122502,0.000005703,-0.000088094,0.972166479,0.004185004,0.002373094,-0.234241873
1786198322,317273004,-0.067354730,0.064115085,9.726371368,0.000137650,0.000010126,-0.000067045,0.972166479,0.004184955,0.002373312,-0.234241933
1786198322,322294673,-0.067354730,0.064115085,9.726371368,0.000150750,0.000015456,-0.000047077,0.972166419,0.004184921,0.002373531,-0.234241962
1786198322,327264594,-0.067354730,0.064115085,9.726371368,0.000159958,0.000019797,-0.000024354,0.972166419,0.004184896,0.002373753,-0.234241992
1786198322,337272548,-0.062614813,0.066552205,9.728826029,-0.000001233,-0.000035776,0.000123195,0.972166717,0.004184317,0.002374551,-0.234240741
1786198322,342283782,-0.062614813,0.066552205,9.728826029,-0.000011182,-0.000027105,0.000115822,0.972166717,0.004184175,0.002374471,-0.234240621
1786198322,347310090,-0.065014291,0.065297666,9.731198829,-0.000023089,-0.000014618,0.000108529,0.972166717,0.004183974,0.002374572,-0.234240517
1786198322,352294536,-0.065014291,0.065297666,9.731198829,-0.000035988,0.000001658,0.000100353,0.972166777,0.004183763,0.002374691,-0.234240428
1786198322,357264220,-0.065014291,0.065297666,9.731198829,-0.000047887,0.000020796,0.000093246,0.972166777,0.004183547,0.002374830,-0.234240338
1786198322,362293232,-0.065014291,0.065297666,9.731198829,-0.000060634,0.000036932,0.000087087,0.972166777,0.004183326,0.002374986,-0.234240249
1786198322,367300932,-0.065014291,0.065297666,9.731198829,-0.000074272,0.000052006,0.000080934,0.972166836,0.004183098,0.002375159,-0.234240189
1786198322,377274211,-0.057809754,0.067850679,9.725265074,0.000057117,-0.000059869,-0.000009359,0.972166896,0.004181217,0.002373924,-0.234239921
1786198322,382305213,-0.064928154,0.067838775,9.716827542,0.000072472,-0.000062222,-0.000005315,0.972166896,0.004181269,0.002373899,-0.234239921
1786198322,387280588,-0.064928154,0.067838775,9.716827542,0.000082854,-0.000064677,-0.000004253,0.972166896,0.004181329,0.002373869,-0.234239921
1786198322,397309506,-0.064928154,0.067838775,9.716827542,0.000090260,-0.000068161,-0.000005184,0.972166896,0.004181396,0.002373834,-0.234239921
1786198322,402319969,-0.064928154,0.067838775,9.716827542,0.000094689,-0.000071699,-0.000008081,0.972166896,0.004181467,0.002373794,-0.234239936
1786198322,407275869,-0.064928154,0.067838775,9.716827542,0.000098077,-0.000073308,-0.000011914,0.972166896,0.004181540,0.002373751,-0.234239951
1786198322,412277603,-0.068505828,0.066592258,9.716794798,0.000103388,-0.000073897,-0.000014721,0.972166896,0.004181601,0.002373882,-0.234239966
1786198322,422301007,-0.066121205,0.062956478,9.723963484,0.000030661,-0.000189418,-0.000137146,0.972166538,0.004177267,0.002376406,-0.234241575
1786198322,427294766,-0.066121205,0.062956478,9.723963484,0.000018438,-0.000203771,-0.000116459,0.972166538,0.004177011,0.002376368,-0.234241694
1786198322,432293714,-0.066121205,0.062956478,9.723963484,0.000003389,-0.000217061,-0.000092978,0.972166479,0.004176735,0.002376323,-0.234241769
1786198322,437312066,-0.066121205,0.062956478,9.723963484,-0.000014493,-0.000227336,-0.000065716,0.972166479,0.004176439,0.002376273,-0.234241828
1786198322,442306486,-0.066121205,0.062956478,9.723963484,-0.000034293,-0.000233700,-0.000038548,0.972166479,0.004176123,0.002376222,-0.234241873
1786198322,447343605,-0.066165398,0.067774803,9.721621090,-0.000050234,-0.000235187,-0.000014309,0.972166479,0.004176028,0.002376114,-0.234241888
1786198322,452346164,-0.066165398,0.067774803,9.721621090,-0.000064230,-0.000233767,0.000007934,0.972166479,0.004175920,0.002376010,-0.234241888
1786198322,462300734,-0.071160902,0.074770430,9.734886083,0.000027936,0.000049240,-0.000051279,0.972166538,0.004177930,0.002375943,-0.234241605
1786198322,467367487,-0.071160902,0.074770430,9.734886083,0.000038807,0.000076076,-0.000063084,0.972166538,0.004178538,0.002376381,-0.234241679
1786198322,472337389,-0.071160902,0.074770430,9.734886083,0.000049728,0.000099939,-0.000070993,0.972166479,0.004179145,0.002376827,-0.234241754
1786198322,482294981,-0.071160902,0.074770430,9.734886083,0.000060730,0.000119890,-0.000074072,0.972166479,0.004179753,0.002377281,-0.234241843
1786198322,487293541,-0.072277666,0.072417272,9.728850587,0.000072769,0.000135944,-0.000073305,0.972166479,0.004180194,0.002377794,-0.234241933
1786198322,492285616,-0.072277666,0.072417272,9.728850587,0.000086856,0.000147196,-0.000066776,0.972166419,0.004180646,0.002378309,-0.234241992
1786198322,497304274,-0.072277666,0.072417272,9.728850587,0.000100057,0.000151641,-0.000057486,0.972166419,0.004181111,0.002378823,-0.234242067
1786198322,502281272,-0.075773104,0.062744653,9.732314478,0.000040698,-0.000076886,0.000024550,0.972166419,0.004184531,0.002387172,-0.234241843
1786198322,507317611,-0.075773104,0.062744653,9.732314478,0.000032708,-0.000095475,0.000000754,0.972166419,0.004184358,0.002387913,-0.234241873
1786198322,512279837,-0.075773104,0.062744653,9.732314478,0.000021848,-0.000114995,-0.000023939,0.972166419,0.004184174,0.002388617,-0.234241933
1786198322,522304881,-0.068449402,0.059352747,9.721505315,0.000009155,-0.000139330,-0.000050549,0.972166359,0.004183762,0.002388795,-0.234241977
1786198322,527315527,-0.068449402,0.059352747,9.721505315,-0.000003384,-0.000166401,-0.000074160,0.972166359,0.004183342,0.002388943,-0.234242067
1786198322,532300300,-0.068449402,0.059352747,9.721505315,-0.000017702,-0.000194222,-0.000091865,0.972166300,0.004182912,0.002389056,-0.234242156
1786198322,537297873,-0.068449402,0.059352747,9.721505315,-0.000028989,-0.000218828,-0.000102610,0.972166300,0.004182476,0.002389142,-0.234242260
1786198322,547282075,-0.063818828,0.067746782,9.727635536,0.000003152,-0.000113036,0.000046851,0.972166240,0.004177189,0.002387777,-0.234242544
1786198322,552288647,-0.063818828,0.067746782,9.727635536,0.000012417,-0.000092079,0.000041221,0.972166240,0.004177153,0.002387668,-0.234242499
1786198322,557280850,-0.056717503,0.075046199,9.726559648,0.000020599,-0.000067357,0.000035671,0.972166240,0.004177452,0.002387071,-0.234242454
1786198322,567291181,-0.056717503,0.075046199,9.726559648,0.000027689,-0.000038904,0.000029231,0.972166240,0.004177770,0.002386490,-0.234242409
1786198322,572289105,-0.056717503,0.075046199,9.726559648,0.000030848,-0.000011649,0.000020825,0.972166300,0.004178104,0.002385925,-0.234242395
1786198322,577307198,-0.056717503,0.075046199,9.726559648,0.000031992,0.000016364,0.000009545,0.972166300,0.004178446,0.002385385,-0.234242365
1786198322,582293552,-0.056717503,0.075046199,9.726559648,0.000029279,0.000042248,-0.000001751,0.972166300,0.004178788,0.002384877,-0.234242350
1786198322,587315634,-0.071092042,0.074854410,9.726484804,-0.000036082,0.000196757,-0.000075059,0.972166121,0.004183689,0.002388822,-0.234243050
1786198322,592259227,-0.066272310,0.071298591,9.728866959,-0.000041630,0.000179954,-0.000086641,0.972166061,0.004183881,0.002389076,-0.234243125
1786198322,597260343,-0.066272310,0.071298591,9.728866959,-0.000045183,0.000159321,-0.000101120,0.972166061,0.004184064,0.002389311,-0.234243229
1786198322,607284288,-0.066272310,0.071298591,9.728866959,-0.000047670,0.000135927,-0.000113622,0.972166061,0.004184240,0.002389523,-0.234243333
1786198322,612260392,-0.066272310,0.071298591,9.728866959,-0.000047202,0.000111732,-0.000125076,0.972166002,0.004184412,0.002389712,-0.234243438
1786198322,617290387,-0.066272310,0.071298591,9.728866959,-0.000044757,0.000089715,-0.000131567,0.972165942,0.004184584,0.002389881,-0.234243572
1786198322,622255202,-0.067418593,0.068909418,9.726429840,-0.000039343,0.000067933,-0.000133143,0.972165942,0.004184637,0.002390116,-0.234243721
1786198322,632264340,-0.061536120,0.072513130,9.733707284,0.000108770,-0.000139635,0.000033655,0.972165823,0.004188103,0.002389941,-0.234244257
1786198322,637272346,-0.061536120,0.072513130,9.733707284,0.000093629,-0.000132208,0.000039267,0.972165823,0.004188375,0.002389558,-0.234244198
1786198322,642297170,-0.061536120,0.072513130,9.733707284,0.000077514,-0.000121954,0.000042945,0.972165823,0.004188638,0.002389185,-0.234244138
1786198322,647269201,-0.061536120,0.072513130,9.733707284,0.000060427,-0.000111873,0.000040771,0.972165823,0.004188891,0.002388821,-0.234244078
1786198322,652288997,-0.061536120,0.072513130,9.733707284,0.000046299,-0.000102850,0.000034740,0.972165883,0.004189136,0.002388465,-0.234244049
1786198322,657263415,-0.060286634,0.070155917,9.731283029,0.000034145,-0.000094893,0.000024862,0.972165883,0.004189198,0.002388087,-0.234244004
1786198322,662293725,-0.060286634,0.070155917,9.731283029,0.000021089,-0.000089953,0.000012064,0.972165883,0.004189250,0.002387711,-0.234243974
1786198322,672273385,-0.063739013,0.061753861,9.727561861,0.000000939,0.000080478,-0.000104888,0.972165704,0.004184356,0.002387137,-0.234244719
1786198322,677289128,-0.063739013,0.061753861,9.727561861,0.000001520,0.000099428,-0.000107924,0.972165704,0.004184011,0.002387294,-0.234244823
1786198322,682256012,-0.063739013,0.061753861,9.727561861,-0.000000732,0.000118357,-0.000105153,0.972165644,0.004183671,0.002387469,-0.234244913
1786198322,692276974,-0.063739013,0.061753861,9.727561861,-0.000002901,0.000136294,-0.000098529,0.972165644,0.004183338,0.002387662,-0.234245002
1786198322,697250966,-0.074544412,0.066452354,9.722763636,-0.000006866,0.000150326,-0.000087167,0.972165644,0.004183403,0.002388344,-0.234245107
1786198322,702248530,-0.074544412,0.066452354,9.722763636,-0.000010671,0.000158518,-0.000073042,0.972165585,0.004183466,0.002389034,-0.234245181
1786198322,707246926,-0.074544412,0.066452354,9.722763636,-0.000013419,0.000162799,-0.000059042,0.972165585,0.004183528,0.002389731,-0.234245256
1786198322,712270415,-0.066241494,0.074990321,9.719309101,-0.000058332,0.000016962,0.000001632,0.972165644,0.004182579,0.002393970,-0.234245136
1786198322,717244551,-0.066241494,0.074990321,9.719309101,-0.000076295,0.000001034,-0.000003672,0.972165644,0.004182877,0.002394004,-0.234245136
1786198322,722255087,-0.066241494,0.074990321,9.719309101,-0.000092273,-0.000012869,-0.000009869,0.972165585,0.004183148,0.002394028,-0.234245136
1786198322,732212345,-0.062655287,0.072593109,9.724099140,-0.000102389,-0.000025697,-0.000017899,0.972165585,0.004183258,0.002393879,-0.234245151
1786198322,737276092,-0.062655287,0.072593109,9.724099140,-0.000109615,-0.000036540,-0.000028740,0.972165585,0.004183355,0.002393725,-0.234245181
1786198322,742245849,-0.062655287,0.072593109,9.724099140,-0.000112919,-0.000048270,-0.000040472,0.972165585,0.004183443,0.002393563,-0.234245226
1786198322,747275599,-0.062655287,0.072593109,9.724099140,-0.000113315,-0.000056959,-0.000050126,0.972165585,0.004183526,0.002393394,-0.234245270
1786198322,757268949,-0.065078144,0.070091999,9.731257301,0.000011465,0.000060288,0.000037519,0.972165525,0.004182918,0.002392431,-0.234245405
1786198322,762285875,-0.065078144,0.070091999,9.731257301,0.000027722,0.000074818,0.000041620,0.972165525,0.004183091,0.002392516,-0.234245360
1786198322,767293945,-0.063761096,0.064163032,9.726390079,0.000046782,0.000090262,0.000044776,0.972165585,0.004182927,0.002392616,-0.234245330
1786198322,772268728,-0.063761096,0.064163032,9.726390079,0.000063839,0.000102676,0.000046879,0.972165585,0.004182787,0.002392723,-0.234245285
1786198322,777257312,-0.063761096,0.064163032,9.726390079,0.000078952,0.000110151,0.000048873,0.972165585,0.004182666,0.002392834,-0.234245241
1786198322,782257095,-0.063761096,0.064163032,9.726390079,0.000093147,0.000110801,0.000051708,0.972165644,0.004182562,0.002392942,-0.234245211
1786198322,787252987,-0.063761096,0.064163032,9.726390079,0.000105426,0.000106588,0.000055402,0.972165644,0.004182470,0.002393042,-0.234245151
1786198322,797267584,-0.072253162,0.067574937,9.733591509,0.000002535,0.000021448,0.000179456,0.972166061,0.004187297,0.002398787,-0.234243110
1786198322,802240328,-0.073376047,0.066432355,9.726369029,-0.000005277,0.000012275,0.000165718,0.972166121,0.004187313,0.002399318,-0.234242961
1786198322,807205374,-0.073376047,0.066432355,9.726369029,-0.000015036,0.000004058,0.000150104,0.972166121,0.004187318,0.002399847,-0.234242812
1786198322,817241493,-0.073376047,0.066432355,9.726369029,-0.000024807,-0.000002213,0.000132657,0.972166181,0.004187312,0.002400375,-0.234242693
1786198322,822259307,-0.073376047,0.066432355,9.726369029,-0.000035536,-0.000005533,0.000116304,0.972166181,0.004187295,0.002400902,-0.234242588
1786198322,827251985,-0.073376047,0.066432355,9.726369029,-0.000048158,-0.000006883,0.000101985,0.972166181,0.004187265,0.002401430,-0.234242499
1786198322,832240285,-0.069720971,0.064119114,9.722758958,-0.000061738,-0.000005326,0.000087774,0.972166181,0.004187056,0.002401764,-0.234242424
1786198322,842248044,-0.057748321,0.065489510,9.721635123,-0.000143526,-0.000084663,0.000033925,0.972166359,0.004184065,0.002401909,-0.234241784
1786198322,847220902,-0.057748321,0.065489510,9.721635123,-0.000131396,-0.000077469,0.000025250,0.972166359,0.004183711,0.002401568,-0.234241754
1786198322,852283255,-0.057748321,0.065489510,9.721635123,-0.000114535,-0.000067359,0.000015747,0.972166359,0.004183372,0.002401228,-0.234241739
1786198322,857262265,-0.057748321,0.065489510,9.721635123,-0.000092862,-0.000057186,0.000009252,0.972166359,0.004183051,0.002400887,-0.234241709
1786198322,862285387,-0.057748321,0.065489510,9.721635123,-0.000070328,-0.000046064,0.000003787,0.972166359,0.004182751,0.002400545,-0.234241694
1786198322,867254149,-0.061370169,0.069061318,9.719261153,-0.000049822,-0.000034984,0.000000270,0.972166359,0.004182705,0.002400358,-0.234241694
1786198322,872281187,-0.061370169,0.069061318,9.719261153,-0.000032273,-0.000024910,-0.000000364,0.972166359,0.004182679,0.002400173,-0.234241694
1786198322,882268400,-0.063769638,0.067806761,9.721633953,0.000015908,0.000222566,0.000004481,0.972166479,0.004182887,0.002400114,-0.234241396
1786198322,887284082,-0.063769638,0.067806761,9.721633953,0.000018466,0.000231050,-0.000003120,0.972166479,0.004182935,0.002400306,-0.234241396
1786198322,892274890,-0.063769638,0.067806761,9.721633953,0.000020214,0.000231768,-0.000007907,0.972166479,0.004182986,0.002400499,-0.234241396
1786198322,902271195,-0.063769638,0.067806761,9.721633953,0.000019199,0.000224719,-0.000010883,0.972166479,0.004183033,0.002400685,-0.234241411
1786198322,907271283,-0.058984249,0.069081281,9.720472696,0.000014512,0.000208006,-0.000011129,0.972166479,0.004183079,0.002400613,-0.234241411
1786198322,912283408,-0.058984249,0.069081281,9.720472696,0.000009021,0.000184607,-0.000009552,0.972166479,0.004183113,0.002400516,-0.234241411
1786198322,917266177,-0.058984249,0.069081281,9.720472696,0.000003650,0.000157478,-0.000006103,0.972166479,0.004183136,0.002400388,-0.234241396
1786198322,922247277,-0.053111607,0.072672979,9.728949990,-0.000052395,-0.000115052,0.000040957,0.972166717,0.004182199,0.002394028,-0.234240741
1786198322,927255306,-0.053111607,0.072672979,9.728949990,-0.000056227,-0.000113808,0.000027138,0.972166717,0.004182220,0.002393217,-0.234240696
1786198322,932256017,-0.053111607,0.072672979,9.728949990,-0.000059107,-0.000113602,0.000009500,0.972166717,0.004182240,0.002392401,-0.234240666
1786198322,942249759,-0.055501246,0.071430436,9.730122941,-0.000061968,-0.000115375,-0.000010022,0.972166717,0.004182217,0.002391729,-0.234240666
1786198322,947249076,-0.055501246,0.071430436,9.730122941,-0.000064812,-0.000118127,-0.000030433,0.972166717,0.004182191,0.002391066,-0.234240681
1786198322,952249035,-0.055501246,0.071430436,9.730122941,-0.000067614,-0.000120830,-0.000048801,0.972166717,0.004182159,0.002390410,-0.234240711
1786198322,957248294,-0.055501246,0.071430436,9.730122941,-0.000066526,-0.000120505,-0.000064077,0.972166717,0.004182129,0.002389760,-0.234240755
1786198322,967244725,-0.061426777,0.066556197,9.730032894,0.000008431,-0.000054002,-0.000081077,0.972166300,0.004182848,0.002384384,-0.234242305
1786198322,972248289,-0.061426777,0.066556197,9.730032894,0.000000511,-0.000044046,-0.000076715,0.972166300,0.004182690,0.002384195,-0.234242380
1786198322,977256384,-0.069818053,0.067654880,9.728803809,-0.000009311,-0.000034163,-0.000072396,0.972166300,0.004182720,0.002384518,-0.234242469
1786198322,982253837,-0.069818053,0.067654880,9.728803809,-0.000021984,-0.000024346,-0.000067158,0.972166240,0.004182739,0.002384854,-0.234242529
1786198322,987239324,-0.069818053,0.067654880,9.728803809,-0.000037429,-0.000017489,-0.000060082,0.972166240,0.004182745,0.002385199,-0.234242603
1786198322,992237647,-0.069818053,0.067654880,9.728803809,-0.000054662,-0.000013565,-0.000051167,0.972166240,0.004182735,0.002385550,-0.234242663
1786198322,997264151,-0.069818053,0.067654880,9.728803809,-0.000071701,-0.000013489,-0.000039447,0.972166181,0.004182707,0.002385903,-0.234242707
1786198323,7251609,-0.067492286,0.073691765,9.727689330,-0.000053864,-0.000090862,0.000053394,0.972166300,0.004184418,0.002385423,-0.234242275
1786198323,12270841,-0.067486147,0.072481190,9.728875145,-0.000040048,-0.000093284,0.000046428,0.972166300,0.004184649,0.002385475,-0.234242231
1786198323,17259184,-0.067486147,0.072481190,9.728875145,-0.000031142,-0.000095734,0.000040416,0.972166300,0.004184891,0.002385524,-0.234242186
1786198323,27274975,-0.067486147,0.072481190,9.728875145,-0.000027122,-0.000098212,0.000035355,0.972166300,0.004185136,0.002385569,-0.234242156
1786198323,32302654,-0.067486147,0.072481190,9.728875145,-0.000028920,-0.000100711,0.000032199,0.972166359,0.004185379,0.002385613,-0.234242141
1786198323,37290532,-0.067486147,0.072481190,9.728875145,-0.000034555,-0.000102200,0.000032915,0.972166359,0.004185615,0.002385655,-0.234242111
1786198323,42290594,-0.063898642,0.073739712,9.727708041,-0.000043995,-0.000101679,0.000039443,0.972166359,0.004185854,0.002385475,-0.234242067
1786198323,52291234,-0.055469314,0.069033260,9.730093705,-0.000011045,0.000076758,0.000046541,0.972166657,0.004185747,0.002379655,-0.234240875
1786198323,57308123,-0.055469314,0.069033260,9.730093705,0.000000263,0.000095837,0.000041889,0.972166657,0.004185684,0.002379205,-0.234240815
1786198323,62293361,-0.055469314,0.069033260,9.730093705,0.000008696,0.000110939,0.000039108,0.972166657,0.004185633,0.002378776,-0.234240755
1786198323,67299282,-0.055469314,0.069033260,9.730093705,0.000013235,0.000123977,0.000036269,0.972166717,0.004185591,0.002378364,-0.234240726
1786198323,72307726,-0.055469314,0.069033260,9.730093705,0.000017831,0.000133086,0.000034352,0.972166717,0.004185557,0.002377965,-0.234240681
1786198323,77303119,-0.060250985,0.068981321,9.728868129,0.000023456,0.000138296,0.000033364,0.972166717,0.004185596,0.002377864,-0.234240636
1786198323,82307152,-0.060250985,0.068981321,9.728868129,0.000030053,0.000142540,0.000033346,0.972166717,0.004185643,0.002377768,-0.234240592
1786198323,92297329,-0.063753677,0.066608192,9.721618751,0.000068076,0.000048419,-0.000064880,0.972166777,0.004185608,0.002376866,-0.234240308
1786198323,97266665,-0.063753677,0.066608192,9.721618751,0.000061832,0.000041057,-0.000078315,0.972166777,0.004185590,0.002376900,-0.234240383
1786198323,102262017,-0.063753677,0.066608192,9.721618751,0.000057547,0.000033737,-0.000092633,0.972166777,0.004185567,0.002376928,-0.234240472
1786198323,112284268,-0.064987193,0.067766799,9.724027804,0.000058094,0.000027446,-0.000108754,0.972166717,0.004185612,0.002377000,-0.234240562
1786198323,117252389,-0.064987193,0.067766799,9.724027804,0.000061585,0.000019281,-0.000124796,0.972166717,0.004185660,0.002377062,-0.234240681
1786198323,122255514,-0.064987193,0.067766799,9.724027804,0.000064071,0.000012115,-0.000140751,0.972166657,0.004185709,0.002377117,-0.234240815
1786198323,127256330,-0.064987193,0.067766799,9.724027804,0.000064588,0.000004944,-0.000157619,0.972166657,0.004185756,0.002377164,-0.234240979
1786198323,132256291,-0.060260833,0.068969325,9.730067977,0.000031397,-0.000053869,0.000025845,0.972166300,0.004186145,0.002373921,-0.234242275
1786198323,137245095,-0.060260833,0.068969325,9.730067977,0.000038082,-0.000049490,0.000033614,0.972166300,0.004186151,0.002373622,-0.234242231
1786198323,142265062,-0.056583666,0.064246931,9.727628519,0.000045632,-0.000044223,0.000037487,0.972166359,0.004185839,0.002373192,-0.234242201
1786198323,152246841,-0.056583666,0.064246931,9.727628519,0.000053071,-0.000037095,0.000038460,0.972166359,0.004185535,0.002372768,-0.234242156
1786198323,157269776,-0.056583666,0.064246931,9.727628519,0.000060414,-0.000029088,0.000036532,0.972166359,0.004185241,0.002372351,-0.234242111
1786198323,162252805,-0.056583666,0.064246931,9.727628519,0.000067676,-0.000020186,0.000032688,0.972166359,0.004184955,0.002371939,-0.234242067
1786198323,167260960,-0.056583666,0.064246931,9.727628519,0.000074872,-0.000010376,0.000027908,0.972166419,0.004184677,0.002371534,-0.234242037
1786198323,177276191,-0.061386130,0.070259906,9.719275187,0.000086470,0.000110945,-0.000159097,0.972166181,0.004183952,0.002370765,-0.234242886
1786198323,182281224,-0.058978128,0.067870697,9.721658512,0.000064780,0.000102331,-0.000160592,0.972166181,0.004183964,0.002370628,-0.234243035
1786198323,187282791,-0.058978128,0.067870697,9.721658512,0.000043319,0.000089951,-0.000158259,0.972166121,0.004183951,0.002370479,-0.234243169
1786198323,192280663,-0.058978128,0.067870697,9.721658512,0.000022021,0.000077706,-0.000152055,0.972166061,0.004183913,0.002370319,-0.234243304
1786198323,197267303,-0.058978128,0.067870697,9.721658512,0.000001842,0.000065588,-0.000142960,0.972166061,0.004183851,0.002370147,-0.234243438
1786198323,202269024,-0.058978128,0.067870697,9.721658512,-0.000013370,0.000054596,-0.000131903,0.972166002,0.004183771,0.002369966,-0.234243557
1786198323,207305560,-0.066139588,0.066588229,9.720406038,-0.000025549,0.000042760,-0.000118945,0.972166002,0.004183700,0.002370146,-0.234243676
1786198323,217315910,-0.061385016,0.064171017,9.728802640,0.000043707,-0.000004735,-0.000078920,0.972165704,0.004183150,0.002373359,-0.234244987
1786198323,222331020,-0.061385016,0.064171017,9.728802640,0.000045580,-0.000003498,-0.000066842,0.972165704,0.004182903,0.002373249,-0.234245032
1786198323,227278719,-0.061385016,0.064171017,9.728802640,0.000044544,-0.000002285,-0.000053885,0.972165704,0.004182653,0.002373139,-0.234245077
1786198323,237283749,-0.061385016,0.064171017,9.728802640,0.000044501,-0.000002037,-0.000040997,0.972165704,0.004182401,0.002373029,-0.234245107
1786198323,242284679,-0.061385016,0.064171017,9.728802640,0.000044477,-0.000003750,-0.000029176,0.972165704,0.004182146,0.002372917,-0.234245121
1786198323,247290347,-0.056583666,0.064246931,9.727628519,0.000046357,-0.000006474,-0.000021292,0.972165704,0.004181835,0.002372511,-0.234245121
1786198323,252272360,-0.056583666,0.064246931,9.727628519,0.000049115,-0.000009282,-0.000019261,0.972165704,0.004181528,0.002372103,-0.234245121
1786198323,257276008,-0.064897529,0.061785874,9.722754280,-0.000048048,0.000157727,0.000040790,0.972165763,0.004179464,0.002369774,-0.234244943
1786198323,262271745,-0.064897529,0.061785874,9.722754280,-0.000055741,0.000161589,0.000034759,0.972165763,0.004179143,0.002370073,-0.234244913
1786198323,267280488,-0.064897529,0.061785874,9.722754280,-0.000059546,0.000162457,0.000022927,0.972165763,0.004178818,0.002370373,-0.234244883
1786198323,277269361,-0.064897529,0.061785874,9.722754280,-0.000060459,0.000163301,0.000008274,0.972165763,0.004178490,0.002370676,-0.234244868
1786198323,282280594,-0.072188011,0.066436347,9.727577063,-0.000056554,0.000164145,-0.000009168,0.972165763,0.004178485,0.002371330,-0.234244898
1786198323,287266926,-0.072188011,0.066436347,9.727577063,-0.000049806,0.000167932,-0.000026445,0.972165763,0.004178487,0.002371982,-0.234244943
1786198323,292375827,-0.072188011,0.066436347,9.727577063,-0.000039273,0.000175628,-0.000043532,0.972165763,0.004178501,0.002372635,-0.234245002
1786198323,302244209,-0.072289917,0.074838440,9.726478956,0.000052558,-0.000024204,-0.000153815,0.972165167,0.004183600,0.002381298,-0.234246880
1786198323,307274706,-0.072289917,0.074838440,9.726478956,0.000050843,-0.000046286,-0.000145659,0.972165167,0.004184096,0.002381595,-0.234247059
1786198323,312240037,-0.072289917,0.074838440,9.726478956,0.000051068,-0.000064279,-0.000133580,0.972165108,0.004184586,0.002381874,-0.234247208
1786198323,322246657,-0.071047859,0.070036067,9.728827198,0.000052343,-0.000081072,-0.000114740,0.972165108,0.004184808,0.002382148,-0.234247342
1786198323,327244204,-0.071047859,0.070036067,9.728827198,0.000053590,-0.000094833,-0.000094006,0.972165048,0.004185028,0.002382408,-0.234247431
1786198323,332245794,-0.071047859,0.070036067,9.728827198,0.000055846,-0.000109447,-0.000071440,0.972165048,0.004185249,0.002382655,-0.234247521
1786198323,337277727,-0.071047859,0.070036067,9.728827198,0.000057070,-0.000121088,-0.000048951,0.972165048,0.004185468,0.002382893,-0.234247580
1786198323,342266396,-0.054283700,0.071470398,9.727729091,0.000120585,-0.000146614,-0.000046899,0.972165048,0.004186940,0.002375646,-0.234247476
1786198323,347248529,-0.054283700,0.071470398,9.727729091,0.000116720,-0.000129505,-0.000051284,0.972165048,0.004187063,0.002374937,-0.234247506
1786198323,352241250,-0.057827021,0.065393542,9.731236251,0.000109952,-0.000109551,-0.000052719,0.972165048,0.004186884,0.002374488,-0.234247535
1786198323,362270362,-0.057827021,0.065393542,9.731236251,0.000101302,-0.000088694,-0.000051239,0.972165048,0.004186695,0.002374056,-0.234247565
1786198323,367268537,-0.057827021,0.065393542,9.731236251,0.000091765,-0.000067899,-0.000046865,0.972165048,0.004186498,0.002373639,-0.234247595
1786198323,372265523,-0.057827021,0.065393542,9.731236251,0.000082350,-0.000049095,-0.000039633,0.972165048,0.004186288,0.002373234,-0.234247625
1786198323,377246168,-0.057827021,0.065393542,9.731236251,0.000072039,-0.000030359,-0.000030505,0.972165048,0.004186065,0.002372842,-0.234247640
1786198323,387241548,-0.070857414,0.061741938,9.719123159,-0.000004305,0.000129535,-0.000008378,0.972164989,0.004184936,0.002375416,-0.234247699
1786198323,392241867,-0.073356367,0.066456347,9.723969331,-0.000016021,0.000134589,-0.000007395,0.972164989,0.004184974,0.002376076,-0.234247714
1786198323,397241328,-0.073356367,0.066456347,9.723969331,-0.000031510,0.000135671,-0.000007490,0.972164989,0.004184997,0.002376734,-0.234247729
1786198323,402243223,-0.073356367,0.066456347,9.723969331,-0.000050756,0.000133788,-0.000007672,0.972164989,0.004185000,0.002377389,-0.234247744
1786198323,407249411,-0.073356367,0.066456347,9.723969331,-0.000067898,0.000128056,-0.000007895,0.972164989,0.004184985,0.002378039,-0.234247759
1786198323,412260791,-0.073356367,0.066456347,9.723969331,-0.000082913,0.000116551,-0.000008190,0.972164989,0.004184953,0.002378679,-0.234247774
1786198323,417284322,-0.067373103,0.067746818,9.722816260,-0.000093915,0.000100261,-0.000010461,0.972164989,0.004184899,0.002378974,-0.234247789
1786198323,427400169,-0.061407107,0.066580189,9.727633197,0.000034919,-0.000100080,0.000141739,0.972165108,0.004183250,0.002381136,-0.234247252
1786198323,432337248,-0.061407107,0.066580189,9.727633197,0.000029067,-0.000103423,0.000146731,0.972165167,0.004183129,0.002380906,-0.234247103
1786198323,437308164,-0.061407107,0.066580189,9.727633197,0.000020290,-0.000106839,0.000148754,0.972165167,0.004182998,0.002380674,-0.234246939
1786198323,447277020,-0.061407107,0.066580189,9.727633197,0.000007662,-0.000111292,0.000148771,0.972165227,0.004182853,0.002380441,-0.234246790
1786198323,452271524,-0.061407107,0.066580189,9.727633197,-0.000007764,-0.000119658,0.000147724,0.972165287,0.004182693,0.002380204,-0.234246641
1786198323,457293638,-0.057884753,0.068977292,9.732481708,-0.000024079,-0.000129972,0.000144699,0.972165346,0.004182592,0.002379709,-0.234246492
1786198323,462303704,-0.057884753,0.068977292,9.732481708,-0.000042293,-0.000141301,0.000137772,0.972165406,0.004182471,0.002379213,-0.234246343
1786198323,472278869,-0.059019890,0.070255877,9.722888766,-0.000046344,0.000018054,0.000069932,0.972165644,0.004180994,0.002373685,-0.234245151
1786198323,477274078,-0.059019890,0.070255877,9.722888766,-0.000048325,0.000025523,0.000059979,0.972165644,0.004180998,0.002373436,-0.234245092
1786198323,482282006,-0.059019890,0.070255877,9.722888766,-0.000049302,0.000030019,0.000048099,0.972165704,0.004181001,0.002373190,-0.234245062
1786198323,487315320,-0.059019890,0.070255877,9.722888766,-0.000047359,0.000033538,0.000035323,0.972165704,0.004181008,0.002372945,-0.234245032
1786198323,492298338,-0.067357142,0.066548249,9.722801058,-0.000043407,0.000034187,0.000024525,0.972165704,0.004180928,0.002373196,-0.234245002
1786198323,497296158,-0.067357142,0.066548249,9.722801058,-0.000038426,0.000031969,0.000015686,0.972165704,0.004180851,0.002373446,-0.234244987
1786198323,502280895,-0.067357142,0.066548249,9.722801058,-0.000033366,0.000026923,0.000010727,0.972165704,0.004180779,0.002373691,-0.234244972
1786198323,512278270,-0.068733211,0.072405240,9.734869711,0.000050009,-0.000030192,0.000029745,0.972165763,0.004183590,0.002377711,-0.234244466
1786198323,517278638,-0.068733211,0.072405240,9.734869711,0.000048600,-0.000027323,0.000019925,0.972165763,0.004184001,0.002377935,-0.234244466
1786198323,522284117,-0.068733211,0.072405240,9.734869711,0.000044360,-0.000026390,0.000013006,0.972165763,0.004184411,0.002378163,-0.234244466
1786198323,532276430,-0.066317791,0.072461191,9.732481708,0.000037302,-0.000027383,0.000008971,0.972165763,0.004184761,0.002378213,-0.234244451
1786198323,537292570,-0.066317791,0.072461191,9.732481708,0.000028457,-0.000031216,0.000009743,0.972165823,0.004185101,0.002378261,-0.234244451
1786198323,542287568,-0.066317791,0.072461191,9.732481708,0.000019729,-0.000036916,0.000013392,0.972165823,0.004185430,0.002378305,-0.234244436
1786198323,547291962,-0.066317791,0.072461191,9.732481708,0.000015931,-0.000043482,0.000018028,0.972165823,0.004185752,0.002378344,-0.234244421
1786198323,552284452,-0.063856880,0.071354541,9.726477787,0.000156962,0.000087944,0.000007717,0.972165883,0.004188829,0.002374174,-0.234244004
1786198323,557279674,-0.063856880,0.071354541,9.726477787,0.000165596,0.000103116,0.000006087,0.972165883,0.004189167,0.002374191,-0.234244004
1786198323,562279134,-0.067462758,0.073727761,9.724088615,0.000175201,0.000117288,0.000006402,0.972165883,0.004189670,0.002374373,-0.234244019
1786198323,572294475,-0.067462758,0.073727761,9.724088615,0.000185788,0.000130486,0.000009621,0.972165883,0.004190180,0.002374563,-0.234244019
1786198323,577259629,-0.067462758,0.073727761,9.724088615,0.000196308,0.000143599,0.000011854,0.972165883,0.004190700,0.002374762,-0.234244019
1786198323,582276903,-0.067462758,0.073727761,9.724088615,0.000205848,0.000155701,0.000015991,0.972165883,0.004191227,0.002374968,-0.234244019
1786198323,587257007,-0.067462758,0.073727761,9.724088615,0.000213399,0.000167719,0.000020087,0.972165883,0.004191760,0.002375183,-0.234244019
1786198323,597254964,-0.067420996,0.071342582,9.722859530,0.000031280,0.000081398,-0.000047763,0.972166002,0.004196159,0.002376962,-0.234243602
1786198323,602289151,-0.063866720,0.071342545,9.727678805,0.000006999,0.000066012,-0.000054807,0.972165942,0.004196343,0.002376972,-0.234243646
1786198323,607296156,-0.063866720,0.071342545,9.727678805,-0.000015171,0.000053765,-0.000054955,0.972165942,0.004196503,0.002376975,-0.234243706
1786198323,612265005,-0.063866720,0.071342545,9.727678805,-0.000034356,0.000045534,-0.000053067,0.972165942,0.004196642,0.002376975,-0.234243751
1786198323,617317910,-0.063866720,0.071342545,9.727678805,-0.000050551,0.000039338,-0.000050157,0.972165942,0.004196763,0.002376973,-0.234243795
1786198323,622274379,-0.063866720,0.071342545,9.727678805,-0.000064798,0.000035084,-0.000050121,0.972165883,0.004196867,0.002376970,-0.234243825
1786198323,627305627,-0.066272310,0.071298591,9.728866959,-0.000077999,0.000029873,-0.000051062,0.972165883,0.004196992,0.002377108,-0.234243870
1786198323,637267612,-0.056593496,0.064234935,9.728828368,-0.000107649,0.000053543,0.000067110,0.972165883,0.004194789,0.002376988,-0.234243825
1786198323,642262550,-0.056593496,0.064234935,9.728828368,-0.000094434,0.000059452,0.000077677,0.972165942,0.004194368,0.002376703,-0.234243751
1786198323,647280460,-0.056593496,0.064234935,9.728828368,-0.000080260,0.000060452,0.000086182,0.972165942,0.004193960,0.002376415,-0.234243646
1786198323,657275639,-0.056593496,0.064234935,9.728828368,-0.000068014,0.000055582,0.000093560,0.972166002,0.004193561,0.002376117,-0.234243557
1786198323,662287565,-0.056593496,0.064234935,9.728828368,-0.000057702,0.000045842,0.000099832,0.972166002,0.004193168,0.002375805,-0.234243438
1786198323,667277195,-0.057817182,0.065405538,9.730036402,-0.000050319,0.000033185,0.000105025,0.972166002,0.004192854,0.002375521,-0.234243318
1786198323,672319205,-0.057817182,0.065405538,9.730036402,-0.000043911,0.000018638,0.000110151,0.972166061,0.004192539,0.002375219,-0.234243214
1786198323,682258190,-0.061454999,0.070175934,9.727676466,0.000039090,0.000097390,0.000051254,0.972166359,0.004191164,0.002373111,-0.234241992
1786198323,687274585,-0.061454999,0.070175934,9.727676466,0.000041738,0.000091885,0.000040273,0.972166359,0.004191290,0.002373022,-0.234241948
1786198323,692264979,-0.061454999,0.070175934,9.727676466,0.000043482,0.000082530,0.000030245,0.972166359,0.004191415,0.002372922,-0.234241918
1786198323,697261501,-0.061454999,0.070175934,9.727676466,0.000045280,0.000070329,0.000021191,0.972166359,0.004191540,0.002372807,-0.234241903
1786198323,702294761,-0.066258761,0.072533166,9.725280277,0.000045218,0.000055308,0.000015027,0.972166419,0.004191858,0.002372924,-0.234241918
1786198323,707267227,-0.066258761,0.072533166,9.725280277,0.000045236,0.000036498,0.000009803,0.972166419,0.004192175,0.002373023,-0.234241918
1786198323,712307796,-0.066258761,0.072533166,9.725280277,0.000044300,0.000016799,0.000004579,0.972166419,0.004192490,0.002373104,-0.234241933
1786198323,722259182,-0.067441973,0.067662847,9.731216370,0.000024772,-0.000150224,0.000041545,0.972166479,0.004195193,0.002375814,-0.234241560
1786198323,727267476,-0.067441973,0.067662847,9.731216370,0.000017070,-0.000163210,0.000038126,0.972166479,0.004195167,0.002375866,-0.234241530
1786198323,732293102,-0.067441973,0.067662847,9.731216370,0.000008325,-0.000171326,0.000032850,0.972166479,0.004195130,0.002375913,-0.234241500
1786198323,742270726,-0.065033970,0.065273674,9.733599696,0.000001513,-0.000175478,0.000028654,0.972166479,0.004194896,0.002375852,-0.234241471
1786198323,747259860,-0.065033970,0.065273674,9.733599696,-0.000004296,-0.000178608,0.000025475,0.972166479,0.004194655,0.002375789,-0.234241441
1786198323,752304343,-0.065033970,0.065273674,9.733599696,-0.000008112,-0.000179685,0.000026246,0.972166479,0.004194412,0.002375726,-0.234241411
1786198323,757259358,-0.065033970,0.065273674,9.733599696,-0.000012838,-0.000180713,0.000029915,0.972166538,0.004194166,0.002375662,-0.234241396
1786198323,762296747,-0.064917209,0.061761882,9.725153977,0.000011368,0.000028945,0.000071924,0.972166717,0.004192722,0.002377226,-0.234240636
1786198323,767272440,-0.064917209,0.061761882,9.725153977,0.000019945,0.000031744,0.000067819,0.972166717,0.004192386,0.002377390,-0.234240577
1786198323,772270351,-0.069756611,0.065293710,9.725173858,0.000029410,0.000034486,0.000060834,0.972166717,0.004192323,0.002377776,-0.234240532
1786198323,782284005,-0.069756611,0.065293710,9.725173858,0.000037831,0.000036178,0.000050946,0.972166717,0.004192269,0.002378162,-0.234240502
1786198323,787275432,-0.069756611,0.065293710,9.725173858,0.000046196,0.000037843,0.000040137,0.972166717,0.004192224,0.002378548,-0.234240472
1786198323,792316728,-0.069756611,0.065293710,9.725173858,0.000052546,0.000040429,0.000028406,0.972166717,0.004192185,0.002378934,-0.234240457
1786198323,797312704,-0.069756611,0.065293710,9.725173858,0.000051078,0.000044868,0.000017655,0.972166717,0.004192146,0.002379326,-0.234240457
1786198323,807308917,-0.061322277,0.065465573,9.719216715,-0.000071280,0.000031724,0.000023490,0.972166657,0.004192243,0.002380435,-0.234240696
1786198323,812280342,-0.062536113,0.066648172,9.719224901,-0.000056985,0.000022259,0.000035977,0.972166657,0.004192088,0.002380414,-0.234240666
1786198323,817273068,-0.062536113,0.066648172,9.719224901,-0.000041843,0.000011791,0.000043543,0.972166717,0.004191945,0.002380379,-0.234240636
1786198323,827311798,-0.062536113,0.066648172,9.719224901,-0.000027756,-0.000000632,0.000048119,0.972166717,0.004191812,0.002380328,-0.234240592
1786198323,832265103,-0.062536113,0.066648172,9.719224901,-0.000016617,-0.000015959,0.000051624,0.972166717,0.004191686,0.002380260,-0.234240547
1786198323,837318809,-0.062536113,0.066648172,9.719224901,-0.000009412,-0.000033233,0.000053097,0.972166717,0.004191564,0.002380174,-0.234240502
1786198323,842283943,-0.057822006,0.070271847,9.722894613,-0.000004191,-0.000053429,0.000050615,0.972166717,0.004191567,0.002379762,-0.234240443
1786198323,847271682,-0.061361627,0.065417589,9.724017279,0.000017394,-0.000129044,-0.000102409,0.972166657,0.004190944,0.002372465,-0.234240845
1786198323,852317075,-0.061361627,0.065417589,9.724017279,0.000016077,-0.000114858,-0.000103631,0.972166657,0.004190746,0.002372255,-0.234240949
1786198323,857272008,-0.061361627,0.065417589,9.724017279,0.000009849,-0.000097907,-0.000105822,0.972166657,0.004190545,0.002372062,-0.234241053
1786198323,867312530,-0.061361627,0.065417589,9.724017279,-0.000000224,-0.000079092,-0.000105099,0.972166598,0.004190335,0.002371888,-0.234241143
1786198323,872284844,-0.061361627,0.065417589,9.724017279,-0.000014152,-0.000057468,-0.000102433,0.972166598,0.004190115,0.002371738,-0.234241247
1786198323,877292204,-0.058953615,0.063028380,9.726400604,-0.000029915,-0.000034933,-0.000095903,0.972166538,0.004189707,0.002371504,-0.234241307
1786198323,882300976,-0.058953615,0.063028380,9.726400604,-0.000045570,-0.000012474,-0.000087463,0.972166598,0.004189286,0.002371295,-0.234241396
1786198323,892293567,-0.064951552,0.066592221,9.721612903,0.000043350,0.000080039,-0.000012931,0.972166479,0.004183013,0.002372239,-0.234241709
1786198323,897275931,-0.064951552,0.066592221,9.721612903,0.000044341,0.000069046,-0.000009145,0.972166479,0.004182999,0.002372371,-0.234241724
1786198323,902276767,-0.064951552,0.066592221,9.721612903,0.000043352,0.000060026,-0.000005368,0.972166479,0.004182981,0.002372496,-0.234241724
1786198323,907294878,-0.064951552,0.066592221,9.721612903,0.000043309,0.000052015,-0.000002554,0.972166479,0.004182961,0.002372613,-0.234241724
1786198323,912299098,-0.070954496,0.065277722,9.725166841,0.000043249,0.000045014,0.000000262,0.972166479,0.004182938,0.002373090,-0.234241724
1786198323,917249638,-0.070954496,0.065277722,9.725166841,0.000043176,0.000038031,0.000002093,0.972166479,0.004182913,0.002373561,-0.234241724
1786198323,922286277,-0.070954496,0.065277722,9.725166841,0.000044102,0.000031131,0.000005866,0.972166479,0.004182888,0.002374026,-0.234241724
1786198323,932225036,-0.061436617,0.066544201,9.731232743,0.000012380,0.000018565,0.000137129,0.972166777,0.004181355,0.002377029,-0.234240428
1786198323,937230483,-0.061436617,0.066544201,9.731232743,0.000013367,0.000015608,0.000138347,0.972166836,0.004181226,0.002376905,-0.234240294
1786198323,942239349,-0.061436617,0.066544201,9.731232743,0.000016262,0.000012653,0.000137639,0.972166896,0.004181098,0.002376777,-0.234240159
1786198323,952226229,-0.062608692,0.065341621,9.730011844,0.000018068,0.000012540,0.000133088,0.972166896,0.004180921,0.002376741,-0.234240010
1786198323,957228840,-0.062608692,0.065341621,9.730011844,0.000018756,0.000017196,0.000124745,0.972166896,0.004180746,0.002376710,-0.234239891
1786198323,962228856,-0.062608692,0.065341621,9.730011844,0.000020331,0.000025706,0.000115546,0.972166955,0.004180574,0.002376687,-0.234239787
1786198323,967230543,-0.062608692,0.065341621,9.730011844,0.000019860,0.000038984,0.000105479,0.972166955,0.004180406,0.002376677,-0.234239683
1786198323,972228794,-0.067427126,0.072553165,9.721673715,0.000109055,0.000190137,-0.000064634,0.972167015,0.004178244,0.002377497,-0.234239608
1786198323,977227505,-0.067427126,0.072553165,9.721673715,0.000124280,0.000179757,-0.000059451,0.972167015,0.004178645,0.002377752,-0.234239668
1786198323,982238994,-0.073410381,0.071262676,9.722829124,0.000136604,0.000167526,-0.000050473,0.972166955,0.004179067,0.002378289,-0.234239712
1786198323,992222413,-0.073410381,0.071262676,9.722829124,0.000148922,0.000155429,-0.000037657,0.972166955,0.004179501,0.002378814,-0.234239757
1786198323,997223781,-0.073410381,0.071262676,9.722829124,0.000161176,0.000144381,-0.000023918,0.972166955,0.004179945,0.002379327,-0.234239802
1786198324,2248425,-0.073410381,0.071262676,9.722829124,0.000173294,0.000135275,-0.000013129,0.972166955,0.004180399,0.002379830,-0.234239832
1786198324,7226963,-0.073410381,0.071262676,9.722829124,0.000183395,0.000126173,-0.000003386,0.972166955,0.004180862,0.002380323,-0.234239846
1786198324,17224405,-0.066131054,0.062944482,9.725163333,-0.000014603,-0.000186077,0.000132490,0.972167075,0.004180833,0.002384734,-0.234239399
1786198324,22255726,-0.064917209,0.061761882,9.725153977,-0.000029366,-0.000203266,0.000158546,0.972167075,0.004180458,0.002384654,-0.234239236
1786198324,27218840,-0.064917209,0.061761882,9.725153977,-0.000040238,-0.000216440,0.000184576,0.972167134,0.004180078,0.002384560,-0.234239057
1786198324,32224286,-0.064917209,0.061761882,9.725153977,-0.000046309,-0.000224673,0.000208662,0.972167194,0.004179696,0.002384459,-0.234238848
1786198324,37263499,-0.064917209,0.061761882,9.725153977,-0.000048588,-0.000229008,0.000228849,0.972167253,0.004179315,0.002384352,-0.234238625
1786198324,42250760,-0.064917209,0.061761882,9.725153977,-0.000046107,-0.000229435,0.000246135,0.972167313,0.004178938,0.002384243,-0.234238386
1786198324,47247502,-0.060181010,0.062976404,9.729994302,-0.000039921,-0.000225069,0.000257631,0.972167373,0.004178547,0.002383900,-0.234238133
1786198324,57262687,-0.066253937,0.067666839,9.732423236,-0.000131138,0.000096964,0.000146890,0.972168148,0.004173989,0.002379389,-0.234234914
1786198324,62259180,-0.066253937,0.067666839,9.732423236,-0.000133706,0.000108936,0.000139532,0.972168207,0.004173889,0.002379653,-0.234234780
1786198324,67272062,-0.066253937,0.067666839,9.732423236,-0.000133288,0.000118977,0.000134153,0.972168207,0.004173791,0.002379926,-0.234234631
1786198324,77268420,-0.066253937,0.067666839,9.732423236,-0.000131821,0.000125116,0.000129718,0.972168267,0.004173696,0.002380205,-0.234234497
1786198324,82262509,-0.066253937,0.067666839,9.732423236,-0.000129344,0.000129312,0.000126255,0.972168267,0.004173604,0.002380487,-0.234234378
1786198324,87317148,-0.069776291,0.065269718,9.727574725,-0.000127839,0.000134483,0.000124756,0.972168326,0.004173439,0.002380970,-0.234234273
1786198324,92256398,-0.069776291,0.065269718,9.727574725,-0.000126331,0.000140635,0.000125222,0.972168326,0.004173278,0.002381457,-0.234234154
1786198324,102251350,-0.066229251,0.072569154,9.721679562,-0.000097194,0.000161319,0.000041307,0.972168565,0.004173098,0.002387745,-0.234233111
1786198324,107254571,-0.066229251,0.072569154,9.721679562,-0.000087553,0.000145287,0.000051620,0.972168565,0.004173288,0.002387953,-0.234233066
1786198324,112252187,-0.066229251,0.072569154,9.721679562,-0.000080846,0.000129336,0.000063792,0.972168565,0.004173481,0.002388145,-0.234233007
1786198324,117253191,-0.066229251,0.072569154,9.721679562,-0.000073195,0.000111500,0.000073941,0.972168624,0.004173680,0.002388317,-0.234232947
1786198324,122250309,-0.066268601,0.072521170,9.726480126,-0.000064667,0.000093691,0.000080166,0.972168624,0.004173907,0.002388477,-0.234232873
1786198324,127268493,-0.066268601,0.072521170,9.726480126,-0.000054309,0.000075903,0.000081528,0.972168624,0.004174143,0.002388618,-0.234232798
1786198324,132284816,-0.066268601,0.072521170,9.726480126,-0.000044077,0.000060092,0.000080002,0.972168684,0.004174390,0.002388741,-0.234232739
1786198324,142250772,-0.057906836,0.071386463,9.731309926,0.000075204,-0.000073886,0.000045703,0.972168922,0.004177995,0.002383339,-0.234231472
1786198324,147294328,-0.057906836,0.071386463,9.731309926,0.000077283,-0.000068131,0.000020361,0.972168982,0.004178160,0.002382818,-0.234231472
1786198324,152294972,-0.057906836,0.071386463,9.731309926,0.000080229,-0.000058547,-0.000006722,0.972168982,0.004178331,0.002382300,-0.234231472
1786198324,162252553,-0.061413228,0.067790754,9.726446212,0.000086068,-0.000046998,-0.000031668,0.972168982,0.004178347,0.002382089,-0.234231502
1786198324,167251893,-0.061413228,0.067790754,9.726446212,0.000091908,-0.000031497,-0.000049631,0.972168922,0.004178371,0.002381893,-0.234231532
1786198324,172246139,-0.061413228,0.067790754,9.726446212,0.000098757,-0.000014981,-0.000061655,0.972168922,0.004178406,0.002381711,-0.234231591
1786198324,177250328,-0.061413228,0.067790754,9.726446212,0.000107593,0.000002573,-0.000066789,0.972168922,0.004178454,0.002381546,-0.234231651
1786198324,187263782,-0.065036382,0.067706820,9.730028216,0.000099897,0.000065622,-0.000047527,0.972168744,0.004180187,0.002379491,-0.234232441
1786198324,192257959,-0.065036382,0.067706820,9.730028216,0.000109339,0.000051822,-0.000047406,0.972168744,0.004180288,0.002379580,-0.234232485
1786198324,197257291,-0.065042504,0.068917403,9.728843570,0.000116792,0.000038066,-0.000047305,0.972168744,0.004180463,0.002379637,-0.234232530
1786198324,202250967,-0.065042504,0.068917403,9.728843570,0.000119338,0.000024303,-0.000048227,0.972168684,0.004180638,0.002379679,-0.234232560
1786198324,207250850,-0.065042504,0.068917403,9.728843570,0.000117014,0.000011540,-0.000048209,0.972168684,0.004180808,0.002379711,-0.234232605
1786198324,212261825,-0.065042504,0.068917403,9.728843570,0.000110814,-0.000000218,-0.000047245,0.972168684,0.004180969,0.002379733,-0.234232649
1786198324,217310300,-0.065042504,0.068917403,9.728843570,0.000101791,-0.000012868,-0.000043421,0.972168684,0.004181119,0.002379745,-0.234232694
1786198324,227265891,-0.061496761,0.072561114,9.728906720,0.000103577,-0.000113218,0.000093672,0.972168863,0.004184184,0.002377169,-0.234231666
1786198324,232284428,-0.061483212,0.073795699,9.725320038,0.000106464,-0.000099344,0.000075991,0.972168863,0.004184514,0.002376850,-0.234231591
1786198324,237284385,-0.061483212,0.073795699,9.725320038,0.000109336,-0.000085539,0.000058397,0.972168922,0.004184854,0.002376541,-0.234231547
1786198324,242235719,-0.061483212,0.073795699,9.725320038,0.000112208,-0.000071785,0.000041863,0.972168922,0.004185203,0.002376241,-0.234231502
1786198324,247262077,-0.061483212,0.073795699,9.725320038,0.000116072,-0.000056056,0.000030305,0.972168922,0.004185564,0.002375954,-0.234231472
1786198324,252231930,-0.061483212,0.073795699,9.725320038,0.000118971,-0.000039391,0.000021723,0.972168922,0.004185934,0.002375679,-0.234231457
1786198324,257233498,-0.057809754,0.067850679,9.725265074,0.000121875,-0.000019807,0.000018083,0.972168922,0.004185940,0.002375299,-0.234231442
1786198324,267242005,-0.061439038,0.068977346,9.727662433,0.000020846,0.000136917,0.000044215,0.972169101,0.004187248,0.002372145,-0.234230757
1786198324,272246483,-0.061439038,0.068977346,9.727662433,0.000009997,0.000134035,0.000037056,0.972169101,0.004187288,0.002372121,-0.234230727
1786198324,277263947,-0.061439038,0.068977346,9.727662433,-0.000001744,0.000132181,0.000032849,0.972169161,0.004187316,0.002372097,-0.234230712
1786198324,287239960,-0.061439038,0.068977346,9.727662433,-0.000010499,0.000130390,0.000029666,0.972169161,0.004187335,0.002372074,-0.234230682
1786198324,292237096,-0.061439038,0.068977346,9.727662433,-0.000017238,0.000127678,0.000027473,0.972169161,0.004187347,0.002372050,-0.234230652
1786198324,297264553,-0.068642269,0.070080040,9.727639044,-0.000020060,0.000125027,0.000025333,0.972169161,0.004187519,0.002372422,-0.234230623
1786198324,302231863,-0.068642269,0.070080040,9.727639044,-0.000019014,0.000123388,0.000022289,0.972169161,0.004187691,0.002372793,-0.234230608
1786198324,312241681,-0.066194908,0.067738815,9.725221805,0.000049626,-0.000124021,0.000018282,0.972169161,0.004187619,0.002378941,-0.234230489
1786198324,317267758,-0.066194908,0.067738815,9.725221805,0.000064251,-0.000139691,0.000020020,0.972169161,0.004187644,0.002378910,-0.234230474
1786198324,322249706,-0.066194908,0.067738815,9.725221805,0.000080682,-0.000152365,0.000020844,0.972169161,0.004187681,0.002378861,-0.234230459
1786198324,327315083,-0.066194908,0.067738815,9.725221805,0.000095947,-0.000159182,0.000020779,0.972169161,0.004187732,0.002378801,-0.234230444
1786198324,332287466,-0.065000742,0.066532242,9.727614486,0.000108178,-0.000165066,0.000018757,0.972169161,0.004187712,0.002378688,-0.234230429
1786198324,337284494,-0.065000742,0.066532242,9.727614486,0.000119303,-0.000169045,0.000013854,0.972169161,0.004187704,0.002378568,-0.234230414
1786198324,342344123,-0.065000742,0.066532242,9.727614486,0.000124560,-0.000173056,0.000009885,0.972169161,0.004187699,0.002378443,-0.234230399
1786198324,352269783,-0.068582116,0.064063127,9.729965066,-0.000077674,-0.000049061,0.000069010,0.972169340,0.004185105,0.002376677,-0.234229654
1786198324,357270448,-0.068582116,0.064063127,9.729965066,-0.000074727,-0.000030393,0.000066079,0.972169340,0.004184833,0.002377001,-0.234229594
1786198324,362275212,-0.068582116,0.064063127,9.729965066,-0.000068968,-0.000010903,0.000058355,0.972169399,0.004184567,0.002377350,-0.234229550
1786198324,367271057,-0.064970117,0.060479323,9.733541223,-0.000063356,0.000011310,0.000045864,0.972169399,0.004183989,0.002377565,-0.234229505
1786198324,372276145,-0.064970117,0.060479323,9.733541223,-0.000056854,0.000032362,0.000028576,0.972169399,0.004183421,0.002377799,-0.234229475
1786198324,377237000,-0.064970117,0.060479323,9.733541223,-0.000049399,0.000053339,0.000012356,0.972169399,0.004182865,0.002378051,-0.234229460
1786198324,382227865,-0.064970117,0.060479323,9.733541223,-0.000043814,0.000069370,-0.000001940,0.972169399,0.004182320,0.002378318,-0.234229460
1786198324,392223544,-0.070960617,0.066488305,9.723982195,-0.000057152,-0.000040946,-0.000008464,0.972169340,0.004181293,0.002388354,-0.234229684
1786198324,397228502,-0.070960617,0.066488305,9.723982195,-0.000059681,-0.000051563,-0.000014447,0.972169340,0.004181220,0.002388708,-0.234229699
1786198324,402229010,-0.066214587,0.067714823,9.727622672,-0.000059328,-0.000061157,-0.000022296,0.972169340,0.004181147,0.002388785,-0.234229714
1786198324,412226467,-0.066214587,0.067714823,9.727622672,-0.000058039,-0.000068751,-0.000030065,0.972169340,0.004181074,0.002388852,-0.234229743
1786198324,417225382,-0.066214587,0.067714823,9.727622672,-0.000055796,-0.000077302,-0.000039741,0.972169340,0.004181001,0.002388910,-0.234229788
1786198324,422230751,-0.066214587,0.067714823,9.727622672,-0.000051642,-0.000083828,-0.000048347,0.972169340,0.004180931,0.002388960,-0.234229833
1786198324,427242817,-0.066214587,0.067714823,9.727622672,-0.000046510,-0.000090272,-0.000054958,0.972169280,0.004180865,0.002389001,-0.234229878
1786198324,437230036,-0.060209232,0.066596159,9.727639044,-0.000098229,-0.000077671,-0.000104540,0.972169101,0.004177852,0.002386811,-0.234230727
1786198324,442249776,-0.060266955,0.070179909,9.728883331,-0.000105727,-0.000067742,-0.000107826,0.972169101,0.004177792,0.002386529,-0.234230831
1786198324,447289321,-0.060266955,0.070179909,9.728883331,-0.000111211,-0.000054819,-0.000105205,0.972169042,0.004177729,0.002386258,-0.234230921
1786198324,452300013,-0.060266955,0.070179909,9.728883331,-0.000111823,-0.000037946,-0.000098601,0.972169042,0.004177672,0.002386001,-0.234231010
1786198324,457281687,-0.060266955,0.070179909,9.728883331,-0.000111434,-0.000021109,-0.000090078,0.972169042,0.004177620,0.002385757,-0.234231099
1786198324,462277010,-0.060266955,0.070179909,9.728883331,-0.000108079,-0.000004249,-0.000077685,0.972169042,0.004177577,0.002385523,-0.234231174
1786198324,467266780,-0.061323574,0.061809829,9.725172688,-0.000101769,0.000011646,-0.000062427,0.972169042,0.004177103,0.002385488,-0.234231234
1786198324,477270474,-0.066169098,0.066552241,9.724006754,0.000053689,0.000118762,0.000093775,0.972169220,0.004174183,0.002386461,-0.234230459
1786198324,482277111,-0.066169098,0.066552241,9.724006754,0.000058047,0.000125865,0.000086687,0.972169220,0.004174218,0.002386689,-0.234230369
1786198324,487300609,-0.066169098,0.066552241,9.724006754,0.000065302,0.000130989,0.000077692,0.972169220,0.004174261,0.002386920,-0.234230295
1786198324,497276722,-0.066169098,0.066552241,9.724006754,0.000071599,0.000133164,0.000068685,0.972169220,0.004174311,0.002387151,-0.234230220
1786198324,502287845,-0.066169098,0.066552241,9.724006754,0.000078829,0.000132354,0.000055805,0.972169280,0.004174368,0.002387380,-0.234230176
1786198324,507269423,-0.072128982,0.066508323,9.720375633,0.000086095,0.000125689,0.000040953,0.972169280,0.004174501,0.002387876,-0.234230131
1786198324,512291924,-0.072128982,0.066508323,9.720375633,0.000094425,0.000112291,0.000027049,0.972169280,0.004174638,0.002388361,-0.234230101
1786198324,522271913,-0.059013759,0.069045293,9.724073412,-0.000013439,-0.000076838,-0.000125561,0.972169042,0.004176574,0.002389542,-0.234231144
1786198324,527302534,-0.059013759,0.069045293,9.724073412,-0.000012310,-0.000074337,-0.000116157,0.972168982,0.004176529,0.002389190,-0.234231248
1786198324,532250602,-0.059013759,0.069045293,9.724073412,-0.000006339,-0.000068824,-0.000103790,0.972168982,0.004176490,0.002388839,-0.234231353
1786198324,537250278,-0.059013759,0.069045293,9.724073412,-0.000001413,-0.000062415,-0.000093421,0.972168922,0.004176459,0.002388489,-0.234231427
1786198324,542227120,-0.055394324,0.067906648,9.722878241,0.000002454,-0.000053156,-0.000084038,0.972168922,0.004176328,0.002387976,-0.234231502
1786198324,547239096,-0.055394324,0.067906648,9.722878241,0.000003328,-0.000042074,-0.000076642,0.972168922,0.004176199,0.002387469,-0.234231576
1786198324,552249683,-0.055394324,0.067906648,9.722878241,0.000002242,-0.000031089,-0.000070274,0.972168922,0.004176071,0.002386969,-0.234231651
1786198324,562236256,-0.060157630,0.064222975,9.725208941,0.000059065,0.000000785,-0.000061264,0.972168744,0.004168871,0.002380512,-0.234232545
1786198324,567237909,-0.060157630,0.064222975,9.725208941,0.000068426,0.000005788,-0.000058837,0.972168744,0.004168678,0.002380338,-0.234232605
1786198324,572239460,-0.060157630,0.064222975,9.725208941,0.000079662,0.000012748,-0.000055400,0.972168744,0.004168500,0.002380170,-0.234232664
1786198324,577227109,-0.066204747,0.067726819,9.726421654,0.000094665,0.000021625,-0.000053850,0.972168684,0.004168611,0.002380295,-0.234232709
1786198324,582234478,-0.066204747,0.067726819,9.726421654,0.000113433,0.000031439,-0.000054191,0.972168684,0.004168744,0.002380423,-0.234232768
1786198324,587235402,-0.066204747,0.067726819,9.726421654,0.000134030,0.000043186,-0.000053510,0.972168684,0.004168898,0.002380555,-0.234232828
1786198324,592236645,-0.066204747,0.067726819,9.726421654,0.000155493,0.000055876,-0.000051836,0.972168684,0.004169076,0.002380692,-0.234232873
1786198324,602255890,-0.064977344,0.067778795,9.722827955,0.000161961,0.000045021,0.000051538,0.972168744,0.004174753,0.002387678,-0.234232441
1786198324,607267696,-0.064977344,0.067778795,9.722827955,0.000147730,0.000031959,0.000048023,0.972168744,0.004174900,0.002387719,-0.234232396
1786198324,612287935,-0.066262480,0.071310586,9.727667111,0.000132706,0.000015123,0.000047366,0.972168744,0.004175243,0.002387775,-0.234232351
1786198324,622263878,-0.066262480,0.071310586,9.727667111,0.000120762,-0.000004452,0.000049607,0.972168744,0.004175572,0.002387817,-0.234232306
1786198324,627303547,-0.066262480,0.071310586,9.727667111,0.000107981,-0.000025827,0.000054708,0.972168744,0.004175882,0.002387840,-0.234232247
1786198324,632264635,-0.066262480,0.071310586,9.727667111,0.000097238,-0.000049013,0.000059772,0.972168744,0.004176173,0.002387842,-0.234232187
1786198324,637270615,-0.066262480,0.071310586,9.727667111,0.000089452,-0.000073055,0.000062885,0.972168744,0.004176448,0.002387821,-0.234232128
1786198324,647265762,-0.056683160,0.070215860,9.730101891,-0.000104030,-0.000071472,0.000195631,0.972169161,0.004177957,0.002381328,-0.234230697
1786198324,652263176,-0.060292756,0.071366500,9.730097213,-0.000113217,-0.000062295,0.000205367,0.972169220,0.004177954,0.002381050,-0.234230503
1786198324,657269436,-0.060292756,0.071366500,9.730097213,-0.000120482,-0.000054220,0.000209237,0.972169220,0.004177943,0.002380783,-0.234230280
1786198324,662319716,-0.060292756,0.071366500,9.730097213,-0.000123893,-0.000047219,0.000207287,0.972169280,0.004177932,0.002380523,-0.234230071
1786198324,667254067,-0.060292756,0.071366500,9.730097213,-0.000124470,-0.000040346,0.000198584,0.972169340,0.004177924,0.002380268,-0.234229878
1786198324,672277162,-0.060292756,0.071366500,9.730097213,-0.000121216,-0.000033533,0.000186082,0.972169399,0.004177921,0.002380016,-0.234229699
1786198324,677334642,-0.065080565,0.072525163,9.727688161,-0.000115181,-0.000024887,0.000167881,0.972169399,0.004178047,0.002380016,-0.234229520
1786198324,687278169,-0.055437392,0.066636103,9.730063300,0.000063313,0.000001144,-0.000088281,0.972169518,0.004180621,0.002379423,-0.234229118
1786198324,692239639,-0.055437392,0.066636103,9.730063300,0.000076673,0.000001411,-0.000081874,0.972169518,0.004180471,0.002378904,-0.234229192
1786198324,697232213,-0.055437392,0.066636103,9.730063300,0.000090022,0.000001750,-0.000071617,0.972169459,0.004180335,0.002378385,-0.234229252
1786198324,707214255,-0.055437392,0.066636103,9.730063300,0.000104295,0.000005101,-0.000056500,0.972169459,0.004180214,0.002377867,-0.234229311
1786198324,712226081,-0.055437392,0.066636103,9.730063300,0.000114591,0.000011338,-0.000039511,0.972169459,0.004180105,0.002377354,-0.234229356
1786198324,717220511,-0.049418488,0.066751997,9.726494159,0.000120945,0.000019474,-0.000020676,0.972169459,0.004179947,0.002376544,-0.234229371
1786198324,722217907,-0.049418488,0.066751997,9.726494159,0.000122353,0.000029416,-0.000003896,0.972169459,0.004179792,0.002375743,-0.234229371
1786198324,732218031,-0.058908135,0.061865780,9.722785855,0.000184337,-0.000017000,0.000108698,0.972169638,0.004181223,0.002371238,-0.234228715
1786198324,737215388,-0.058908135,0.061865780,9.722785855,0.000176666,-0.000013957,0.000114924,0.972169697,0.004181028,0.002371019,-0.234228626
1786198324,742224649,-0.058908135,0.061865780,9.722785855,0.000165080,-0.000006105,0.000122126,0.972169697,0.004180822,0.002370808,-0.234228507
1786198324,747221556,-0.058908135,0.061865780,9.722785855,0.000152559,0.000004645,0.000131271,0.972169757,0.004180605,0.002370611,-0.234228373
1786198324,752217258,-0.052931001,0.064366853,9.720445799,0.000141038,0.000017294,0.000140411,0.972169757,0.004180447,0.002370134,-0.234228224
1786198324,757227950,-0.052931001,0.064366853,9.720445799,0.000130524,0.000027878,0.000145602,0.972169816,0.004180282,0.002369672,-0.234228089
1786198324,762237457,-0.052931001,0.064366853,9.720445799,0.000120071,0.000035441,0.000147809,0.972169876,0.004180110,0.002369219,-0.234227940
1786198324,772280020,-0.065041206,0.072573146,9.722887596,-0.000050710,0.000037576,0.000116707,0.972170174,0.004178971,0.002362998,-0.234226450
1786198324,777288955,-0.065041206,0.072573146,9.722887596,-0.000065121,0.000043037,0.000116064,0.972170234,0.004179153,0.002363069,-0.234226346
1786198324,782275536,-0.065041206,0.072573146,9.722887596,-0.000079476,0.000049441,0.000115440,0.972170234,0.004179319,0.002363149,-0.234226227
1786198324,792300543,-0.069797076,0.071334615,9.720446969,-0.000092789,0.000055825,0.000114829,0.972170293,0.004179458,0.002363476,-0.234226122
1786198324,797261286,-0.069797076,0.071334615,9.720446969,-0.000104128,0.000065131,0.000115259,0.972170293,0.004179586,0.002363813,-0.234226003
1786198324,802256405,-0.069797076,0.071334615,9.720446969,-0.000110622,0.000078331,0.000115799,0.972170293,0.004179708,0.002364160,-0.234225884
1786198324,807270182,-0.069797076,0.071334615,9.720446969,-0.000113201,0.000092501,0.000117364,0.972170353,0.004179829,0.002364520,-0.234225780
1786198324,812278111,-0.060179713,0.066632147,9.724038329,-0.000107662,-0.000063518,-0.000034977,0.972170532,0.004177963,0.002366663,-0.234224901
1786198324,817262086,-0.060179713,0.066632147,9.724038329,-0.000108140,-0.000072203,-0.000048542,0.972170532,0.004177715,0.002366453,-0.234224945
1786198324,822269597,-0.067405035,0.070143994,9.722845497,-0.000106681,-0.000082818,-0.000064962,0.972170532,0.004177731,0.002366555,-0.234225005
1786198324,832292077,-0.067405035,0.070143994,9.722845497,-0.000105227,-0.000094368,-0.000082285,0.972170532,0.004177745,0.002366643,-0.234225079
1786198324,837265092,-0.067405035,0.070143994,9.722845497,-0.000100851,-0.000106796,-0.000099507,0.972170472,0.004177757,0.002366715,-0.234225169
1786198324,842312996,-0.067405035,0.070143994,9.722845497,-0.000095526,-0.000119150,-0.000116633,0.972170472,0.004177770,0.002366773,-0.234225288
1786198324,847263612,-0.067405035,0.070143994,9.722845497,-0.000092128,-0.000131411,-0.000130782,0.972170413,0.004177782,0.002366816,-0.234225422
1786198324,857260443,-0.063806567,0.065325632,9.730004827,-0.000051008,-0.000024472,-0.000104578,0.972169876,0.004175546,0.002365766,-0.234227702
1786198324,862267724,-0.057867495,0.071434447,9.726509362,-0.000056636,-0.000008616,-0.000089309,0.972169876,0.004175593,0.002365392,-0.234227791
1786198324,867256556,-0.057867495,0.071434447,9.726509362,-0.000063215,0.000005153,-0.000077068,0.972169876,0.004175636,0.002365031,-0.234227866
1786198324,872260391,-0.057867495,0.071434447,9.726509362,-0.000069866,0.000021693,-0.000068724,0.972169876,0.004175676,0.002364692,-0.234227926
1786198324,877252971,-0.057867495,0.071434447,9.726509362,-0.000078506,0.000037028,-0.000067252,0.972169816,0.004175710,0.002364375,-0.234227970
1786198324,882283175,-0.057867495,0.071434447,9.726509362,-0.000089160,0.000054095,-0.000071601,0.972169816,0.004175736,0.002364085,-0.234228045
1786198324,887253329,-0.063850750,0.070143957,9.727664772,-0.000098813,0.000069075,-0.000079832,0.972169816,0.004175764,0.002364156,-0.234228119
1786198324,897233481,-0.072235904,0.070032093,9.727620333,0.000043967,0.000011909,-0.000050446,0.972169459,0.004176880,0.002368918,-0.234229445
1786198324,902268418,-0.072235904,0.070032093,9.727620333,0.000038254,0.000001303,-0.000039749,0.972169459,0.004177153,0.002369398,-0.234229490
1786198324,907217728,-0.072235904,0.070032093,9.727620333,0.000029652,-0.000007308,-0.000027164,0.972169459,0.004177417,0.002369875,-0.234229520
1786198324,917223492,-0.072235904,0.070032093,9.727620333,0.000019106,-0.000014965,-0.000016588,0.972169459,0.004177671,0.002370351,-0.234229535
1786198324,922210455,-0.072235904,0.070032093,9.727620333,0.000007587,-0.000022669,-0.000009958,0.972169459,0.004177914,0.002370825,-0.234229550
1786198324,927202664,-0.072337810,0.078434185,9.726522226,-0.000001987,-0.000030383,-0.000007224,0.972169459,0.004178658,0.002371164,-0.234229565
1786198324,932217408,-0.072337810,0.078434185,9.726522226,-0.000008656,-0.000038096,-0.000008354,0.972169459,0.004179384,0.002371493,-0.234229594
1786198324,942206349,-0.060203101,0.065385575,9.728823690,-0.000083312,-0.000157839,-0.000062083,0.972169340,0.004178180,0.002371756,-0.234229997
1786198324,947201338,-0.060203101,0.065385575,9.728823690,-0.000088987,-0.000151515,-0.000073388,0.972169340,0.004177857,0.002371467,-0.234230071
1786198324,952198457,-0.060203101,0.065385575,9.728823690,-0.000091717,-0.000141213,-0.000079691,0.972169280,0.004177533,0.002371189,-0.234230131
1786198324,957205253,-0.060203101,0.065385575,9.728823690,-0.000094460,-0.000126037,-0.000082002,0.972169280,0.004177210,0.002370925,-0.234230205
1786198324,962206414,-0.060201795,0.069041300,9.722867716,-0.000095231,-0.000106921,-0.000078395,0.972169280,0.004177092,0.002370656,-0.234230280
1786198324,967224228,-0.060201795,0.069041300,9.722867716,-0.000093079,-0.000084881,-0.000070845,0.972169280,0.004176981,0.002370404,-0.234230354
1786198324,972200852,-0.060201795,0.069041300,9.722867716,-0.000089881,-0.000063819,-0.000058486,0.972169220,0.004176878,0.002370167,-0.234230399
1786198324,982230505,-0.066171519,0.068985386,9.720435274,-0.000023287,0.000076279,-0.000039593,0.972169161,0.004177793,0.002369039,-0.234230652
1786198324,987210830,-0.066171519,0.068985386,9.720435274,-0.000005617,0.000074220,-0.000036331,0.972169161,0.004177875,0.002369223,-0.234230682
1786198324,992206987,-0.066171519,0.068985386,9.720435274,0.000010099,0.000069274,-0.000031212,0.972169161,0.004177972,0.002369399,-0.234230712
1786198325,2212701,-0.072084799,0.061689980,9.722716858,0.000023876,0.000059475,-0.000026216,0.972169161,0.004177767,0.002369980,-0.234230742
1786198325,7216212,-0.072084799,0.061689980,9.722716858,0.000034757,0.000043848,-0.000022339,0.972169161,0.004177568,0.002370545,-0.234230757
1786198325,12224942,-0.072084799,0.061689980,9.722716858,0.000041705,0.000026275,-0.000020496,0.972169161,0.004177369,0.002371095,-0.234230772
1786198325,17226689,-0.072084799,0.061689980,9.722716858,0.000049614,0.000004864,-0.000021626,0.972169161,0.004177171,0.002371626,-0.234230787
1786198325,22247318,-0.068584537,0.066496291,9.726394756,-0.000055494,-0.000073487,-0.000107533,0.972168863,0.004176491,0.002375135,-0.234231919
1786198325,27277340,-0.068584537,0.066496291,9.726394756,-0.000067719,-0.000082044,-0.000109210,0.972168863,0.004176376,0.002375339,-0.234232023
1786198325,32281116,-0.057855234,0.069013279,9.728880993,-0.000081834,-0.000092577,-0.000113842,0.972168803,0.004176239,0.002374922,-0.234232113
1786198325,42276774,-0.057855234,0.069013279,9.728880993,-0.000091025,-0.000102011,-0.000117412,0.972168803,0.004176092,0.002374503,-0.234232232
1786198325,47270762,-0.057855234,0.069013279,9.728880993,-0.000100187,-0.000110426,-0.000120950,0.972168744,0.004175934,0.002374083,-0.234232336
1786198325,52268070,-0.057855234,0.069013279,9.728880993,-0.000108370,-0.000114869,-0.000122457,0.972168744,0.004175768,0.002373664,-0.234232455
1786198325,57259002,-0.057855234,0.069013279,9.728880993,-0.000114623,-0.000115366,-0.000122902,0.972168744,0.004175596,0.002373247,-0.234232575
1786198325,67262526,-0.061516441,0.072537122,9.731306418,0.000059613,0.000086154,-0.000116517,0.972168326,0.004176273,0.002371136,-0.234234095
1786198325,72279966,-0.069776291,0.065269718,9.727574725,0.000074653,0.000092596,-0.000121487,0.972168326,0.004176287,0.002371562,-0.234234214
1786198325,77246080,-0.069776291,0.065269718,9.727574725,0.000082823,0.000097934,-0.000127489,0.972168267,0.004176311,0.002371986,-0.234234333
1786198325,82228686,-0.069776291,0.065269718,9.727574725,0.000084249,0.000099318,-0.000131654,0.972168267,0.004176337,0.002372410,-0.234234482
1786198325,87217247,-0.069776291,0.065269718,9.727574725,0.000078937,0.000096731,-0.000135932,0.972168207,0.004176357,0.002372833,-0.234234616
1786198325,92222731,-0.069776291,0.065269718,9.727574725,0.000069844,0.000091234,-0.000138334,0.972168207,0.004176366,0.002373255,-0.234234765
1786198325,97210658,-0.072130279,0.062852580,9.726331607,0.000058962,0.000081913,-0.000137894,0.972168148,0.004176267,0.002373819,-0.234234899
1786198325,107208657,-0.066237967,0.066468270,9.732408033,-0.000090572,-0.000011728,-0.000058107,0.972167850,0.004177311,0.002383795,-0.234235987
1786198325,112231252,-0.066237967,0.066468270,9.732408033,-0.000084179,-0.000028320,-0.000069668,0.972167850,0.004177146,0.002383946,-0.234236062
1786198325,117209913,-0.066237967,0.066468270,9.732408033,-0.000074910,-0.000047778,-0.000085070,0.972167850,0.004176987,0.002384073,-0.234236151
1786198325,127225079,-0.066237967,0.066468270,9.732408033,-0.000065687,-0.000067139,-0.000100395,0.972167790,0.004176833,0.002384176,-0.234236240
1786198325,132212041,-0.066237967,0.066468270,9.732408033,-0.000055531,-0.000084395,-0.000112690,0.972167790,0.004176686,0.002384258,-0.234236345
1786198325,137209352,-0.059056828,0.067774729,9.731259640,-0.000045473,-0.000099642,-0.000125863,0.972167790,0.004176524,0.002383880,-0.234236464
1786198325,142206496,-0.059056828,0.067774729,9.731259640,-0.000035517,-0.000110912,-0.000137937,0.972167730,0.004176370,0.002383493,-0.234236598
1786198325,152221955,-0.053021962,0.066692054,9.727676466,0.000149379,0.000005821,-0.000019607,0.972167313,0.004175379,0.002377527,-0.234238416
1786198325,157260196,-0.053021962,0.066692054,9.727676466,0.000153579,0.000012918,-0.000004790,0.972167313,0.004175296,0.002376892,-0.234238416
1786198325,162231633,-0.053021962,0.066692054,9.727676466,0.000157686,0.000020878,0.000006086,0.972167313,0.004175220,0.002376270,-0.234238416
1786198325,167212154,-0.053021962,0.066692054,9.727676466,0.000163659,0.000028748,0.000013045,0.972167313,0.004175156,0.002375663,-0.234238401
1786198325,172212329,-0.060109738,0.060627212,9.725164502,0.000168604,0.000036530,0.000018018,0.972167313,0.004174883,0.002375552,-0.234238386
1786198325,177210701,-0.060109738,0.060627212,9.725164502,0.000171571,0.000043244,0.000020990,0.972167313,0.004174619,0.002375448,-0.234238371
1786198325,182205522,-0.060109738,0.060627212,9.725164502,0.000171580,0.000050841,0.000022961,0.972167313,0.004174358,0.002375351,-0.234238356
1786198325,192212804,-0.068477615,0.062972503,9.719150056,0.000014549,0.000061338,-0.000093560,0.972167194,0.004168261,0.002378133,-0.234238863
1786198325,197206757,-0.068477615,0.062972503,9.719150056,0.000007767,0.000054119,-0.000095214,0.972167194,0.004168092,0.002378464,-0.234238952
1786198325,202208650,-0.068477615,0.062972503,9.719150056,0.000001993,0.000045958,-0.000097835,0.972167194,0.004167915,0.002378790,-0.234239042
1786198325,212209721,-0.064969925,0.070223954,9.718056627,-0.000002782,0.000037850,-0.000100434,0.972167194,0.004168043,0.002378851,-0.234239146
1786198325,217211744,-0.064969925,0.070223954,9.718056627,-0.000004619,0.000029817,-0.000102989,0.972167134,0.004168167,0.002378905,-0.234239236
1786198325,222255573,-0.064969925,0.070223954,9.718056627,-0.000002547,0.000020900,-0.000105506,0.972167134,0.004168293,0.002378950,-0.234239340
1786198325,227256123,-0.064969925,0.070223954,9.718056627,0.000004430,0.000010182,-0.000106050,0.972167075,0.004168421,0.002378983,-0.234239429
1786198325,232218730,-0.062649165,0.071382525,9.725284955,-0.000094973,-0.000007383,0.000039252,0.972166955,0.004168528,0.002379027,-0.234239861
1786198325,237218007,-0.062649165,0.071382525,9.725284955,-0.000095682,0.000015186,0.000051051,0.972166955,0.004168608,0.002378945,-0.234239817
1786198325,242220132,-0.063853162,0.072577121,9.724093292,-0.000096405,0.000038613,0.000062807,0.972166955,0.004168763,0.002378941,-0.234239757
1786198325,252289919,-0.063853162,0.072577121,9.724093292,-0.000099025,0.000056991,0.000071494,0.972167015,0.004168916,0.002378956,-0.234239697
1786198325,257251314,-0.063853162,0.072577121,9.724093292,-0.000102562,0.000070358,0.000077137,0.972167015,0.004169066,0.002378985,-0.234239623
1786198325,262262521,-0.063853162,0.072577121,9.724093292,-0.000104124,0.000077748,0.000076855,0.972167015,0.004169215,0.002379022,-0.234239548
1786198325,267252087,-0.063853162,0.072577121,9.724093292,-0.000103746,0.000079155,0.000068737,0.972167075,0.004169366,0.002379060,-0.234239489
1786198325,277220341,-0.068691459,0.070020060,9.733639457,0.000185923,0.000155687,0.000014848,0.972167134,0.004170201,0.002381457,-0.234239191
1786198325,282215255,-0.065058465,0.070115991,9.728857604,0.000200128,0.000175407,0.000011381,0.972167134,0.004170557,0.002381606,-0.234239176
1786198325,287211246,-0.065058465,0.070115991,9.728857604,0.000206449,0.000195868,0.000005923,0.972167134,0.004170922,0.002381773,-0.234239176
1786198325,292211520,-0.065058465,0.070115991,9.728857604,0.000202988,0.000216056,-0.000002520,0.972167134,0.004171287,0.002381961,-0.234239176
1786198325,297259454,-0.065058465,0.070115991,9.728857604,0.000190829,0.000232101,-0.000013987,0.972167134,0.004171643,0.002382166,-0.234239191
1786198325,302258987,-0.065058465,0.070115991,9.728857604,0.000171031,0.000243101,-0.000026526,0.972167134,0.004171981,0.002382387,-0.234239221
1786198325,307215946,-0.067419890,0.065253693,9.732386983,0.000147562,0.000248193,-0.000038167,0.972167134,0.004172073,0.002382809,-0.234239250
1786198325,317245072,-0.069772572,0.066492298,9.725187891,-0.000180271,-0.000090714,0.000073730,0.972167015,0.004172736,0.002385215,-0.234239742
1786198325,322234821,-0.069772572,0.066492298,9.725187891,-0.000179670,-0.000107253,0.000099278,0.972167015,0.004172528,0.002385444,-0.234239653
1786198325,327245978,-0.069772572,0.066492298,9.725187891,-0.000175225,-0.000125694,0.000119854,0.972167015,0.004172320,0.002385649,-0.234239534
1786198325,337260339,-0.069772572,0.066492298,9.725187891,-0.000167075,-0.000142220,0.000131664,0.972167075,0.004172117,0.002385832,-0.234239399
1786198325,342238314,-0.069772572,0.066492298,9.725187891,-0.000158169,-0.000155902,0.000134736,0.972167075,0.004171919,0.002385999,-0.234239250
1786198325,347294165,-0.061387428,0.066604181,9.725232330,-0.000147500,-0.000165702,0.000133022,0.972167134,0.004171640,0.002385759,-0.234239116
1786198325,352246566,-0.061387428,0.066604181,9.725232330,-0.000135081,-0.000170648,0.000127532,0.972167194,0.004171371,0.002385512,-0.234238997
1786198325,362240920,-0.066126230,0.058078155,9.732305122,-0.000093902,-0.000064973,-0.000035080,0.972167373,0.004163422,0.002382778,-0.234238341
1786198325,367262267,-0.066126230,0.058078155,9.732305122,-0.000105374,-0.000050283,-0.000037705,0.972167373,0.004162721,0.002383032,-0.234238371
1786198325,372236549,-0.066126230,0.058078155,9.732305122,-0.000114835,-0.000034636,-0.000038340,0.972167313,0.004162013,0.002383303,-0.234238386
1786198325,377229630,-0.066126230,0.058078155,9.732305122,-0.000121322,-0.000019014,-0.000037971,0.972167313,0.004161299,0.002383593,-0.234238416
1786198325,382216020,-0.066152031,0.059264747,9.733520173,-0.000124847,-0.000004406,-0.000037588,0.972167373,0.004160642,0.002383891,-0.234238461
1786198325,387213425,-0.066152031,0.059264747,9.733520173,-0.000123427,0.000009290,-0.000033290,0.972167373,0.004159991,0.002384201,-0.234238490
1786198325,392217925,-0.066152031,0.059264747,9.733520173,-0.000116095,0.000019141,-0.000027073,0.972167373,0.004159349,0.002384519,-0.234238520
1786198325,402214433,-0.066226839,0.070135990,9.725251041,0.000039234,0.000059597,-0.000076415,0.972167253,0.004158400,0.002385568,-0.234238878
1786198325,407219107,-0.066226839,0.070135990,9.725251041,0.000046987,0.000053677,-0.000070221,0.972167253,0.004158616,0.002385696,-0.234238952
1786198325,412215751,-0.066226839,0.070135990,9.725251041,0.000058678,0.000044977,-0.000061153,0.972167253,0.004158842,0.002385814,-0.234239012
1786198325,422210557,-0.063773347,0.066584200,9.724019617,0.000072268,0.000035372,-0.000052125,0.972167194,0.004158854,0.002385832,-0.234239042
1786198325,427214153,-0.063773347,0.066584200,9.724019617,0.000087707,0.000024814,-0.000046049,0.972167194,0.004158877,0.002385835,-0.234239087
1786198325,432235391,-0.063773347,0.066584200,9.724019617,0.000102013,0.000015176,-0.000044851,0.972167194,0.004158913,0.002385826,-0.234239131
1786198325,437221806,-0.063773347,0.066584200,9.724019617,0.000111334,0.000006445,-0.000046607,0.972167194,0.004158956,0.002385807,-0.234239176
1786198325,442216274,-0.061458709,0.068953355,9.730062130,0.000045644,-0.000051549,-0.000230593,0.972166717,0.004162856,0.002382868,-0.234241039
1786198325,447226030,-0.061458709,0.068953355,9.730062130,0.000032478,-0.000042925,-0.000241080,0.972166657,0.004162901,0.002382661,-0.234241277
1786198325,452261911,-0.061388725,0.062948438,9.731188304,0.000021390,-0.000034231,-0.000246641,0.972166598,0.004162594,0.002382540,-0.234241515
1786198325,462229004,-0.061388725,0.062948438,9.731188304,0.000012288,-0.000021601,-0.000248209,0.972166538,0.004162278,0.002382432,-0.234241754
1786198325,467242337,-0.061388725,0.062948438,9.731188304,0.000007113,-0.000007998,-0.000248743,0.972166479,0.004161956,0.002382337,-0.234241992
1786198325,472254088,-0.061388725,0.062948438,9.731188304,0.000002912,0.000008497,-0.000247276,0.972166419,0.004161633,0.002382259,-0.234242231
1786198325,477251041,-0.061388725,0.062948438,9.731188304,0.000001702,0.000025017,-0.000241903,0.972166359,0.004161316,0.002382199,-0.234242469
1786198325,487236775,-0.068606628,0.068905444,9.725224144,0.000056178,0.000010029,-0.000005121,0.972166061,0.004164743,0.002384819,-0.234243646
1786198325,492218432,-0.072267835,0.072429268,9.727650738,0.000058958,0.000001278,-0.000005205,0.972166061,0.004165202,0.002385245,-0.234243646
1786198325,497224441,-0.072267835,0.072429268,9.727650738,0.000062740,-0.000008352,-0.000003353,0.972166061,0.004165660,0.002385657,-0.234243646
1786198325,502212260,-0.072267835,0.072429268,9.727650738,0.000066550,-0.000019857,-0.000000571,0.972166061,0.004166114,0.002386053,-0.234243646
1786198325,507200645,-0.072267835,0.072429268,9.727650738,0.000067458,-0.000032292,0.000003122,0.972166061,0.004166562,0.002386432,-0.234243646
1786198325,512201208,-0.072267835,0.072429268,9.727650738,0.000066464,-0.000045623,0.000008702,0.972166061,0.004167001,0.002386792,-0.234243631
1786198325,517199668,-0.066264882,0.073743750,9.724095631,0.000066442,-0.000057886,0.000015251,0.972166061,0.004167398,0.002386761,-0.234243616
1786198325,527198384,-0.060266955,0.070179909,9.728883331,-0.000163049,-0.000034464,0.000086295,0.972166300,0.004168372,0.002384559,-0.234242544
1786198325,532201278,-0.060266955,0.070179909,9.728883331,-0.000161489,-0.000027631,0.000078217,0.972166359,0.004168279,0.002384326,-0.234242484
1786198325,537197459,-0.060266955,0.070179909,9.728883331,-0.000156110,-0.000019870,0.000067324,0.972166359,0.004168195,0.002384097,-0.234242424
1786198325,547210562,-0.060266955,0.070179909,9.728883331,-0.000147901,-0.000012185,0.000052634,0.972166359,0.004168122,0.002383868,-0.234242380
1786198325,552210519,-0.060266955,0.070179909,9.728883331,-0.000135887,-0.000005535,0.000034159,0.972166359,0.004168063,0.002383638,-0.234242350
1786198325,557205959,-0.057941188,0.076216812,9.727768852,-0.000117194,0.000002079,0.000012952,0.972166359,0.004168350,0.002383186,-0.234242335
1786198325,562199021,-0.057941188,0.076216812,9.727768852,-0.000094752,0.000009647,-0.000011021,0.972166359,0.004168665,0.002382731,-0.234242350
1786198325,572208807,-0.061448869,0.068965350,9.728862281,0.000040912,0.000095602,0.000055247,0.972166300,0.004169849,0.002377069,-0.234242514
1786198325,577214626,-0.061448869,0.068965350,9.728862281,0.000031058,0.000093103,0.000056780,0.972166300,0.004169919,0.002376990,-0.234242454
